onset	duration	trial_type	melody_number	melody_part	key	sound	action
0.0	14.082	CUE_START	n/a	n/a	n/a	n/a	n/a
14.082	7.76	FIXCROSS	n/a	n/a	n/a	n/a	n/a
21.842	6.324	CUE_LISTEN	M4	1	n/a	n/a	n/a
28.166	7.758	FIXCROSS	n/a	n/a	n/a	n/a	n/a
31.858	n/a	RESPONSE	M4	1	07	G3	press
31.96	n/a	RESPONSE	M4	1	12	C4	press
32.234	n/a	RESPONSE	M4	1	12	C4	release
32.288	n/a	RESPONSE	M4	1	07	G3	release
35.924	6.317	CUE_PLAYBACK_BOTH_HANDS	M4	1	n/a	n/a	n/a
39.912	n/a	RESPONSE	M4	1	00	C3	press
41.324	n/a	RESPONSE	M4	1	00	C3	release
41.867	n/a	RESPONSE	M4	1	17	F4	press
41.894	n/a	RESPONSE	M4	1	00	C3	press
42.241	7.758	FIXCROSS	n/a	n/a	n/a	n/a	n/a
42.417	n/a	RESPONSE	M4	1	19	G4	press
42.611	n/a	RESPONSE	M4	1	17	F4	release
42.68	n/a	RESPONSE	M4	1	07	G3	press
42.871	n/a	RESPONSE	M4	1	17	F4	press
43.142	n/a	RESPONSE	M4	1	17	F4	release
43.145	n/a	RESPONSE	M4	1	19	G4	release
43.265	n/a	RESPONSE	M4	1	07	G3	release
44.677	n/a	RESPONSE	M4	1	00	C3	release
49.999	6.317	CUE_LISTEN	M4	2	n/a	n/a	n/a
56.316	7.758	FIXCROSS	n/a	n/a	n/a	n/a	n/a
59.641	n/a	RESPONSE	M4	2	07	G3	press
60.737	n/a	RESPONSE	M4	2	07	G3	release
64.074	6.325	CUE_PLAYBACK_BOTH_HANDS	M4	2	n/a	n/a	n/a
67.676	n/a	RESPONSE	M4	2	12	C4	press
68.097	n/a	RESPONSE	M4	2	09	A3	press
68.638	n/a	RESPONSE	M4	2	12	C4	release
68.66	n/a	RESPONSE	M4	2	09	A3	release
68.891	n/a	RESPONSE	M4	2	09	A3	press
68.912	n/a	RESPONSE	M4	2	12	C4	press
68.924	n/a	RESPONSE	M4	2	05	F3	press
70.024	n/a	RESPONSE	M4	2	16	E4	press
70.399	7.758	FIXCROSS	n/a	n/a	n/a	n/a	n/a
70.838	n/a	RESPONSE	M4	2	16	E4	release
71.09	n/a	RESPONSE	M4	2	12	C4	release
71.111	n/a	RESPONSE	M4	2	05	F3	release
72.096	n/a	RESPONSE	M4	2	09	A3	release
78.158	6.317	CUE_LISTEN	M1	1	n/a	n/a	n/a
81.084	n/a	RESPONSE	M1	1	07	G3	press
83.366	n/a	RESPONSE	M1	1	07	G3	release
84.474	7.758	FIXCROSS	n/a	n/a	n/a	n/a	n/a
92.232	6.317	CUE_PLAYBACK_RIGHT_HAND	M1	1	n/a	n/a	n/a
93.186	n/a	RESPONSE	M1	1	12	C4	press
93.548	n/a	RESPONSE	M1	1	12	C4	release
93.948	n/a	RESPONSE	M1	1	19	G4	press
94.518	n/a	RESPONSE	M1	1	16	E4	press
94.53	n/a	RESPONSE	M1	1	19	G4	release
94.841	n/a	RESPONSE	M1	1	16	E4	release
94.992	n/a	RESPONSE	M1	1	16	E4	press
95.374	n/a	RESPONSE	M1	1	16	E4	release
95.485	n/a	RESPONSE	M1	1	17	F4	press
95.926	n/a	RESPONSE	M1	1	17	F4	release
95.977	n/a	RESPONSE	M1	1	14	D4	press
96.268	n/a	RESPONSE	M1	1	14	D4	release
96.43	n/a	RESPONSE	M1	1	14	D4	press
96.781	n/a	RESPONSE	M1	1	14	D4	release
96.932	n/a	RESPONSE	M1	1	12	C4	press
97.204	n/a	RESPONSE	M1	1	16	E4	press
97.246	n/a	RESPONSE	M1	1	12	C4	release
97.517	n/a	RESPONSE	M1	1	19	G4	press
97.618	n/a	RESPONSE	M1	1	16	E4	release
98.549	7.758	FIXCROSS	n/a	n/a	n/a	n/a	n/a
99.381	n/a	RESPONSE	M1	1	19	G4	release
106.308	6.325	CUE_LISTEN	M1	2	n/a	n/a	n/a
112.632	7.758	FIXCROSS	n/a	n/a	n/a	n/a	n/a
120.391	6.317	CUE_PLAYBACK_RIGHT_HAND	M1	2	n/a	n/a	n/a
121.801	n/a	RESPONSE	M1	2	19	G4	press
122.214	n/a	RESPONSE	M1	2	19	G4	release
122.358	n/a	RESPONSE	M1	2	16	E4	press
122.648	n/a	RESPONSE	M1	2	16	E4	release
122.841	n/a	RESPONSE	M1	2	16	E4	press
123.204	n/a	RESPONSE	M1	2	16	E4	release
123.335	n/a	RESPONSE	M1	2	17	F4	press
123.674	n/a	RESPONSE	M1	2	17	F4	release
123.845	n/a	RESPONSE	M1	2	14	D4	press
124.156	n/a	RESPONSE	M1	2	14	D4	release
124.307	n/a	RESPONSE	M1	2	14	D4	press
124.66	n/a	RESPONSE	M1	2	14	D4	release
124.82	n/a	RESPONSE	M1	2	12	C4	press
125.042	n/a	RESPONSE	M1	2	16	E4	press
125.112	n/a	RESPONSE	M1	2	12	C4	release
125.374	n/a	RESPONSE	M1	2	12	C4	press
125.425	n/a	RESPONSE	M1	2	16	E4	release
126.178	n/a	RESPONSE	M1	2	12	C4	release
126.708	7.758	FIXCROSS	n/a	n/a	n/a	n/a	n/a
134.466	6.325	CUE_LISTEN	M5	1	n/a	n/a	n/a
140.791	7.758	FIXCROSS	n/a	n/a	n/a	n/a	n/a
148.549	6.317	CUE_PLAYBACK_BOTH_HANDS	M5	1	n/a	n/a	n/a
151.028	n/a	RESPONSE	M5	1	05	F3	press
151.031	n/a	RESPONSE	M5	1	21	A4	press
151.376	n/a	RESPONSE	M5	1	21	A4	release
151.482	n/a	RESPONSE	M5	1	05	F3	release
151.512	n/a	RESPONSE	M5	1	09	A3	press
151.521	n/a	RESPONSE	M5	1	21	A4	press
151.846	n/a	RESPONSE	M5	1	21	A4	release
151.983	n/a	RESPONSE	M5	1	04	E3	press
151.986	n/a	RESPONSE	M5	1	09	A3	release
152.026	n/a	RESPONSE	M5	1	21	A4	press
152.452	n/a	RESPONSE	M5	1	09	A3	press
152.635	n/a	RESPONSE	M5	1	04	E3	release
152.786	n/a	RESPONSE	M5	1	21	A4	release
152.878	n/a	RESPONSE	M5	1	09	A3	release
153.018	n/a	RESPONSE	M5	1	02	D3	press
153.051	n/a	RESPONSE	M5	1	21	A4	press
153.434	n/a	RESPONSE	M5	1	21	A4	release
153.492	n/a	RESPONSE	M5	1	02	D3	release
153.495	n/a	RESPONSE	M5	1	09	A3	press
153.527	n/a	RESPONSE	M5	1	21	A4	press
153.906	n/a	RESPONSE	M5	1	21	A4	release
153.957	n/a	RESPONSE	M5	1	00	C3	press
153.998	n/a	RESPONSE	M5	1	09	A3	release
154.001	n/a	RESPONSE	M5	1	21	A4	press
154.391	n/a	RESPONSE	M5	1	09	A3	press
154.694	n/a	RESPONSE	M5	1	21	A4	release
154.784	n/a	RESPONSE	M5	1	09	A3	release
154.866	7.758	FIXCROSS	n/a	n/a	n/a	n/a	n/a
155.025	n/a	RESPONSE	M5	1	21	A4	press
155.027	n/a	RESPONSE	M5	1	05	F3	press
155.497	n/a	RESPONSE	M5	1	09	A3	press
155.52	n/a	RESPONSE	M5	1	24	C5	press
155.54	n/a	RESPONSE	M5	1	05	F3	release
155.581	n/a	RESPONSE	M5	1	21	A4	release
157.964	n/a	RESPONSE	M5	1	00	C3	release
157.985	n/a	RESPONSE	M5	1	09	A3	release
162.624	6.317	CUE_LISTEN	M5	2	n/a	n/a	n/a
168.941	7.758	FIXCROSS	n/a	n/a	n/a	n/a	n/a
173.538	n/a	RESPONSE	M5	2	24	C5	release
176.699	6.325	CUE_PLAYBACK_BOTH_HANDS	M5	2	n/a	n/a	n/a
178.402	n/a	RESPONSE	M5	2	07	G3	press
178.445	n/a	RESPONSE	M5	2	22	A#4	press
178.817	n/a	RESPONSE	M5	2	22	A#4	release
178.856	n/a	RESPONSE	M5	2	07	G3	release
178.998	n/a	RESPONSE	M5	2	10	A#3	press
179.055	n/a	RESPONSE	M5	2	22	A#4	press
179.374	n/a	RESPONSE	M5	2	22	A#4	release
179.494	n/a	RESPONSE	M5	2	04	E3	press
179.567	n/a	RESPONSE	M5	2	22	A#4	press
179.948	n/a	RESPONSE	M5	2	22	A#4	release
180.016	n/a	RESPONSE	M5	2	04	E3	release
180.131	n/a	RESPONSE	M5	2	22	A#4	press
180.435	n/a	RESPONSE	M5	2	10	A#3	release
180.498	n/a	RESPONSE	M5	2	22	A#4	release
180.704	n/a	RESPONSE	M5	2	22	A#4	press
180.708	n/a	RESPONSE	M5	2	05	F3	press
181.402	n/a	RESPONSE	M5	2	09	A3	press
181.46	n/a	RESPONSE	M5	2	21	A4	press
181.585	n/a	RESPONSE	M5	2	05	F3	release
181.788	n/a	RESPONSE	M5	2	22	A#4	release
182.198	n/a	RESPONSE	M5	2	09	A3	release
182.3	n/a	RESPONSE	M5	2	00	C3	press
182.38	n/a	RESPONSE	M5	2	19	G4	press
182.518	n/a	RESPONSE	M5	2	21	A4	release
183.024	7.758	FIXCROSS	n/a	n/a	n/a	n/a	n/a
183.426	n/a	RESPONSE	M5	2	00	C3	release
183.448	n/a	RESPONSE	M5	2	19	G4	release
190.783	6.317	CUE_LISTEN	M5	1	n/a	n/a	n/a
195.951	n/a	RESPONSE	M5	1	09	A3	press
196.754	n/a	RESPONSE	M5	1	09	A3	release
197.099	7.758	FIXCROSS	n/a	n/a	n/a	n/a	n/a
204.858	6.317	CUE_PLAYBACK_BOTH_HANDS	M5	1	n/a	n/a	n/a
206.492	n/a	RESPONSE	M5	1	21	A4	press
206.556	n/a	RESPONSE	M5	1	05	F3	press
207.005	n/a	RESPONSE	M5	1	21	A4	release
207.086	n/a	RESPONSE	M5	1	05	F3	release
207.127	n/a	RESPONSE	M5	1	09	A3	press
207.151	n/a	RESPONSE	M5	1	21	A4	press
207.65	n/a	RESPONSE	M5	1	21	A4	release
207.741	n/a	RESPONSE	M5	1	09	A3	release
207.842	n/a	RESPONSE	M5	1	04	E3	press
207.845	n/a	RESPONSE	M5	1	21	A4	press
208.305	n/a	RESPONSE	M5	1	21	A4	release
208.346	n/a	RESPONSE	M5	1	09	A3	press
208.628	n/a	RESPONSE	M5	1	21	A4	press
209.634	n/a	RESPONSE	M5	1	09	A3	release
209.636	n/a	RESPONSE	M5	1	21	A4	release
209.798	n/a	RESPONSE	M5	1	02	D3	press
209.825	n/a	RESPONSE	M5	1	21	A4	press
210.191	n/a	RESPONSE	M5	1	21	A4	release
210.21	n/a	RESPONSE	M5	1	02	D3	release
210.292	n/a	RESPONSE	M5	1	09	A3	press
210.311	n/a	RESPONSE	M5	1	21	A4	press
210.638	n/a	RESPONSE	M5	1	21	A4	release
210.703	n/a	RESPONSE	M5	1	09	A3	release
210.726	n/a	RESPONSE	M5	1	00	C3	press
210.78	n/a	RESPONSE	M5	1	21	A4	press
211.153	n/a	RESPONSE	M5	1	09	A3	press
211.174	7.758	FIXCROSS	n/a	n/a	n/a	n/a	n/a
211.242	n/a	RESPONSE	M5	1	04	E3	release
211.421	n/a	RESPONSE	M5	1	21	A4	release
211.513	n/a	RESPONSE	M5	1	09	A3	release
211.612	n/a	RESPONSE	M5	1	21	A4	press
211.632	n/a	RESPONSE	M5	1	05	F3	press
212.018	n/a	RESPONSE	M5	1	09	A3	press
212.021	n/a	RESPONSE	M5	1	24	C5	press
212.065	n/a	RESPONSE	M5	1	05	F3	release
212.092	n/a	RESPONSE	M5	1	21	A4	release
213.161	n/a	RESPONSE	M5	1	17	F4	press
213.163	n/a	RESPONSE	M5	1	04	E3	press
213.183	n/a	RESPONSE	M5	1	09	A3	release
213.765	n/a	RESPONSE	M5	1	17	F4	release
213.846	n/a	RESPONSE	M5	1	19	G4	press
213.857	n/a	RESPONSE	M5	1	09	A3	press
214.518	n/a	RESPONSE	M5	1	00	C3	release
214.63	n/a	RESPONSE	M5	1	09	A3	release
214.641	n/a	RESPONSE	M5	1	21	A4	press
214.763	n/a	RESPONSE	M5	1	19	G4	release
215.234	n/a	RESPONSE	M5	1	09	A3	press
215.355	n/a	RESPONSE	M5	1	04	E3	release
215.806	n/a	RESPONSE	M5	1	00	C3	press
215.947	n/a	RESPONSE	M5	1	09	A3	release
216.298	n/a	RESPONSE	M5	1	09	A3	press
216.37	n/a	RESPONSE	M5	1	21	A4	release
216.751	n/a	RESPONSE	M5	1	09	A3	release
216.812	n/a	RESPONSE	M5	1	00	C3	release
218.933	6.325	CUE_LISTEN	M5	2	n/a	n/a	n/a
223.774	n/a	RESPONSE	M5	2	24	C5	release
225.258	14.075	FIXCROSS	n/a	n/a	n/a	n/a	n/a
233.016	n/a	CUE_PLAYBACK_BOTH_HANDS	M4	2	n/a	n/a	n/a
233.597	n/a	RESPONSE	M5	2	07	G3	press
233.646	n/a	RESPONSE	M5	2	22	A#4	press
234.047	n/a	RESPONSE	M5	2	22	A#4	release
234.14	n/a	RESPONSE	M5	2	10	A#3	press
234.171	n/a	RESPONSE	M5	2	22	A#4	press
234.501	n/a	RESPONSE	M5	2	07	G3	release
234.572	n/a	RESPONSE	M5	2	22	A#4	release
234.644	n/a	RESPONSE	M5	2	04	E3	press
234.705	n/a	RESPONSE	M5	2	22	A#4	press
234.906	n/a	RESPONSE	M5	2	10	A#3	release
235.117	n/a	RESPONSE	M5	2	22	A#4	release
235.228	n/a	RESPONSE	M5	2	10	A#3	press
235.24	n/a	RESPONSE	M5	2	22	A#4	press
235.581	n/a	RESPONSE	M5	2	10	A#3	release
235.622	n/a	RESPONSE	M5	2	22	A#4	release
235.626	n/a	RESPONSE	M5	2	04	E3	release
235.827	n/a	RESPONSE	M5	2	22	A#4	press
235.836	n/a	RESPONSE	M5	2	05	F3	press
236.597	n/a	RESPONSE	M5	2	09	A3	press
236.681	n/a	RESPONSE	M5	2	05	F3	release
237.09	n/a	RESPONSE	M5	2	22	A#4	release
239.154	n/a	RESPONSE	M5	2	09	A3	release
239.305	n/a	RESPONSE	M5	2	07	G3	press
239.332	n/a	RESPONSE	M5	2	22	A#4	press
239.333	7.758	FIXCROSS	n/a	n/a	n/a	n/a	n/a
239.751	n/a	RESPONSE	M5	2	22	A#4	release
239.868	n/a	RESPONSE	M5	2	10	A#3	press
239.896	n/a	RESPONSE	M5	2	22	A#4	press
239.975	n/a	RESPONSE	M5	2	07	G3	release
240.26	n/a	RESPONSE	M5	2	10	A#3	release
240.3	n/a	RESPONSE	M5	2	22	A#4	release
240.332	n/a	RESPONSE	M5	2	04	E3	press
240.447	n/a	RESPONSE	M5	2	22	A#4	press
240.818	n/a	RESPONSE	M5	2	22	A#4	release
240.91	n/a	RESPONSE	M5	2	10	A#3	press
240.978	n/a	RESPONSE	M5	2	22	A#4	press
241.261	n/a	RESPONSE	M5	2	10	A#3	release
241.327	n/a	RESPONSE	M5	2	22	A#4	release
241.497	n/a	RESPONSE	M5	2	05	F3	press
241.533	n/a	RESPONSE	M5	2	22	A#4	press
242.307	n/a	RESPONSE	M5	2	04	E3	release
242.416	n/a	RESPONSE	M5	2	09	A3	press
242.5	n/a	RESPONSE	M5	2	21	A4	press
242.504	n/a	RESPONSE	M5	2	05	F3	release
242.627	n/a	RESPONSE	M5	2	22	A#4	release
242.908	n/a	RESPONSE	M5	2	21	A4	release
242.991	n/a	RESPONSE	M5	2	00	C3	press
242.993	n/a	RESPONSE	M5	2	09	A3	release
243.052	n/a	RESPONSE	M5	2	21	A4	press
243.464	n/a	RESPONSE	M5	2	21	A4	release
243.505	n/a	RESPONSE	M5	2	09	A3	press
243.567	n/a	RESPONSE	M5	2	21	A4	press
244.067	n/a	RESPONSE	M5	2	09	A3	release
244.208	n/a	RESPONSE	M5	2	00	C3	release
245.28	n/a	RESPONSE	M5	2	00	C3	press
245.322	n/a	RESPONSE	M5	2	24	C5	press
245.345	n/a	RESPONSE	M5	2	21	A4	release
246.155	n/a	RESPONSE	M5	2	05	F3	press
246.926	n/a	RESPONSE	M5	2	05	F3	release
247.091	6.317	CUE_LISTEN	M2	1	n/a	n/a	n/a
247.307	n/a	RESPONSE	M2	1	07	G3	press
247.828	n/a	RESPONSE	M2	1	00	C3	release
247.9	n/a	RESPONSE	M2	1	24	C5	release
248.401	n/a	RESPONSE	M2	1	07	G3	release
253.408	7.758	FIXCROSS	n/a	n/a	n/a	n/a	n/a
261.166	6.325	CUE_PLAYBACK_RIGHT_HAND	M2	1	n/a	n/a	n/a
262.525	n/a	RESPONSE	M2	1	24	C5	press
265.212	n/a	RESPONSE	M2	1	24	C5	release
265.272	n/a	RESPONSE	M2	1	19	G4	press
265.555	n/a	RESPONSE	M2	1	19	G4	release
265.763	n/a	RESPONSE	M2	1	19	G4	press
266.227	n/a	RESPONSE	M2	1	17	F4	press
266.446	n/a	RESPONSE	M2	1	19	G4	release
266.697	n/a	RESPONSE	M2	1	16	E4	press
266.788	n/a	RESPONSE	M2	1	17	F4	release
267.142	n/a	RESPONSE	M2	1	17	F4	press
267.321	n/a	RESPONSE	M2	1	16	E4	release
267.491	7.758	FIXCROSS	n/a	n/a	n/a	n/a	n/a
267.652	n/a	RESPONSE	M2	1	19	G4	press
267.883	n/a	RESPONSE	M2	1	17	F4	release
269.046	n/a	RESPONSE	M2	1	19	G4	release
275.25	6.317	CUE_LISTEN	M2	2	n/a	n/a	n/a
278.587	n/a	RESPONSE	M2	2	24	C5	press
280.607	n/a	RESPONSE	M2	2	24	C5	release
281.566	7.758	FIXCROSS	n/a	n/a	n/a	n/a	n/a
283.752	n/a	RESPONSE	M2	2	24	C5	press
284.493	n/a	RESPONSE	M2	2	24	C5	release
289.324	6.317	CUE_PLAYBACK_RIGHT_HAND	M2	2	n/a	n/a	n/a
290.151	n/a	RESPONSE	M2	2	24	C5	press
290.566	n/a	RESPONSE	M2	2	24	C5	release
290.683	n/a	RESPONSE	M2	2	19	G4	press
290.912	n/a	RESPONSE	M2	2	19	G4	release
291.11	n/a	RESPONSE	M2	2	19	G4	press
291.571	n/a	RESPONSE	M2	2	17	F4	press
291.77	n/a	RESPONSE	M2	2	19	G4	release
292.153	n/a	RESPONSE	M2	2	16	E4	press
292.165	n/a	RESPONSE	M2	2	14	D4	press
292.252	n/a	RESPONSE	M2	2	17	F4	release
292.518	n/a	RESPONSE	M2	2	14	D4	release
292.725	n/a	RESPONSE	M2	2	16	E4	release
292.807	n/a	RESPONSE	M2	2	16	E4	press
293.368	n/a	RESPONSE	M2	2	14	D4	press
293.48	n/a	RESPONSE	M2	2	16	E4	release
293.908	n/a	RESPONSE	M2	2	12	C4	press
294.242	n/a	RESPONSE	M2	2	14	D4	release
295.641	7.758	FIXCROSS	n/a	n/a	n/a	n/a	n/a
296.582	n/a	RESPONSE	M2	2	12	C4	release
298.603	n/a	RESPONSE	M2	2	24	C5	press
303.4	6.325	CUE_LISTEN	M2	1	n/a	n/a	n/a
306.235	n/a	RESPONSE	M2	1	24	C5	release
309.724	7.758	FIXCROSS	n/a	n/a	n/a	n/a	n/a
317.483	6.317	CUE_PLAYBACK_RIGHT_HAND	M2	1	n/a	n/a	n/a
318.048	n/a	RESPONSE	M2	1	12	C4	press
318.6	n/a	RESPONSE	M2	1	14	D4	press
318.643	n/a	RESPONSE	M2	1	12	C4	release
319.088	n/a	RESPONSE	M2	1	16	E4	press
319.162	n/a	RESPONSE	M2	1	14	D4	release
319.56	n/a	RESPONSE	M2	1	14	D4	press
319.606	n/a	RESPONSE	M2	1	16	E4	release
320.022	n/a	RESPONSE	M2	1	16	E4	press
320.165	n/a	RESPONSE	M2	1	14	D4	release
320.452	n/a	RESPONSE	M2	1	17	F4	press
320.596	n/a	RESPONSE	M2	1	16	E4	release
320.941	n/a	RESPONSE	M2	1	19	G4	press
321.046	n/a	RESPONSE	M2	1	17	F4	release
323.37	n/a	RESPONSE	M2	1	19	G4	release
323.8	7.758	FIXCROSS	n/a	n/a	n/a	n/a	n/a
331.558	6.325	CUE_LISTEN	M2	2	n/a	n/a	n/a
337.883	7.758	FIXCROSS	n/a	n/a	n/a	n/a	n/a
345.641	6.317	CUE_PLAYBACK_RIGHT_HAND	M2	2	n/a	n/a	n/a
346.473	n/a	RESPONSE	M2	2	16	E4	press
346.963	n/a	RESPONSE	M2	2	16	E4	release
347.007	n/a	RESPONSE	M2	2	19	G4	press
347.858	n/a	RESPONSE	M2	2	19	G4	release
347.967	n/a	RESPONSE	M2	2	19	G4	press
348.498	n/a	RESPONSE	M2	2	17	F4	press
348.51	n/a	RESPONSE	M2	2	19	G4	release
348.995	n/a	RESPONSE	M2	2	16	E4	press
349.112	n/a	RESPONSE	M2	2	17	F4	release
349.498	n/a	RESPONSE	M2	2	14	D4	press
349.586	n/a	RESPONSE	M2	2	16	E4	release
350.011	n/a	RESPONSE	M2	2	12	C4	press
350.142	n/a	RESPONSE	M2	2	14	D4	release
351.535	n/a	RESPONSE	M2	2	12	C4	release
351.958	7.758	FIXCROSS	n/a	n/a	n/a	n/a	n/a
359.716	6.317	CUE_LISTEN	M3	1	n/a	n/a	n/a
364.122	n/a	RESPONSE	M3	1	12	C4	press
366.033	7.759	FIXCROSS	n/a	n/a	n/a	n/a	n/a
366.163	n/a	RESPONSE	M3	1	12	C4	release
373.791	6.316	CUE_PLAYBACK_BOTH_HANDS	M3	1	n/a	n/a	n/a
374.417	n/a	RESPONSE	M3	1	00	C3	press
374.456	n/a	RESPONSE	M3	1	12	C4	press
374.978	n/a	RESPONSE	M3	1	07	G3	press
374.998	n/a	RESPONSE	M3	1	14	D4	press
375.29	n/a	RESPONSE	M3	1	12	C4	release
375.513	n/a	RESPONSE	M3	1	16	E4	press
375.542	n/a	RESPONSE	M3	1	04	E3	press
375.545	n/a	RESPONSE	M3	1	07	G3	release
375.585	n/a	RESPONSE	M3	1	14	D4	release
375.876	n/a	RESPONSE	M3	1	00	C3	release
376.017	n/a	RESPONSE	M3	1	07	G3	press
376.178	n/a	RESPONSE	M3	1	04	E3	release
376.84	n/a	RESPONSE	M3	1	16	E4	release
377.021	n/a	RESPONSE	M3	1	07	G3	release
377.402	n/a	RESPONSE	M3	1	00	C3	press
377.453	n/a	RESPONSE	M3	1	12	C4	press
377.855	n/a	RESPONSE	M3	1	07	G3	press
377.916	n/a	RESPONSE	M3	1	14	D4	press
378.167	n/a	RESPONSE	M3	1	12	C4	release
378.318	n/a	RESPONSE	M3	1	16	E4	press
378.34	n/a	RESPONSE	M3	1	07	G3	release
378.351	n/a	RESPONSE	M3	1	04	E3	press
378.373	n/a	RESPONSE	M3	1	14	D4	release
378.483	n/a	RESPONSE	M3	1	00	C3	release
378.755	n/a	RESPONSE	M3	1	07	G3	press
378.816	n/a	RESPONSE	M3	1	12	C4	press
378.907	n/a	RESPONSE	M3	1	04	E3	release
378.931	n/a	RESPONSE	M3	1	16	E4	release
379.107	n/a	RESPONSE	M3	1	12	C4	release
379.15	n/a	RESPONSE	M3	1	07	G3	release
379.203	n/a	RESPONSE	M3	1	00	C3	press
379.266	n/a	RESPONSE	M3	1	12	C4	press
379.677	n/a	RESPONSE	M3	1	07	G3	press
379.736	n/a	RESPONSE	M3	1	14	D4	press
379.952	n/a	RESPONSE	M3	1	12	C4	release
380.108	7.758	FIXCROSS	n/a	n/a	n/a	n/a	n/a
380.122	n/a	RESPONSE	M3	1	16	E4	press
380.126	n/a	RESPONSE	M3	1	07	G3	release
380.156	n/a	RESPONSE	M3	1	14	D4	release
380.164	n/a	RESPONSE	M3	1	04	E3	press
380.222	n/a	RESPONSE	M3	1	00	C3	release
380.538	n/a	RESPONSE	M3	1	07	G3	press
380.607	n/a	RESPONSE	M3	1	12	C4	press
380.612	n/a	RESPONSE	M3	1	16	E4	release
380.645	n/a	RESPONSE	M3	1	04	E3	release
381.071	n/a	RESPONSE	M3	1	12	C4	release
381.135	n/a	RESPONSE	M3	1	07	G3	release
387.866	6.325	CUE_LISTEN	M3	2	n/a	n/a	n/a
394.191	7.758	FIXCROSS	n/a	n/a	n/a	n/a	n/a
401.95	6.317	CUE_PLAYBACK_BOTH_HANDS	M3	2	n/a	n/a	n/a
402.637	n/a	RESPONSE	M3	2	00	C3	press
402.71	n/a	RESPONSE	M3	2	16	E4	press
403.21	n/a	RESPONSE	M3	2	16	E4	release
403.233	n/a	RESPONSE	M3	2	07	G3	press
403.262	n/a	RESPONSE	M3	2	17	F4	press
403.723	n/a	RESPONSE	M3	2	19	G4	press
403.745	n/a	RESPONSE	M3	2	04	E3	press
403.776	n/a	RESPONSE	M3	2	07	G3	release
403.877	n/a	RESPONSE	M3	2	17	F4	release
403.97	n/a	RESPONSE	M3	2	00	C3	release
404.2	n/a	RESPONSE	M3	2	07	G3	press
404.441	n/a	RESPONSE	M3	2	04	E3	release
404.602	n/a	RESPONSE	M3	2	07	G3	release
404.683	n/a	RESPONSE	M3	2	00	C3	press
404.745	n/a	RESPONSE	M3	2	16	E4	press
404.837	n/a	RESPONSE	M3	2	19	G4	release
405.137	n/a	RESPONSE	M3	2	07	G3	press
405.198	n/a	RESPONSE	M3	2	16	E4	release
405.24	n/a	RESPONSE	M3	2	17	F4	press
405.701	n/a	RESPONSE	M3	2	04	E3	press
405.712	n/a	RESPONSE	M3	2	19	G4	press
405.743	n/a	RESPONSE	M3	2	07	G3	release
406.065	n/a	RESPONSE	M3	2	00	C3	release
406.216	n/a	RESPONSE	M3	2	07	G3	press
406.458	n/a	RESPONSE	M3	2	04	E3	release
406.94	n/a	RESPONSE	M3	2	17	F4	release
407.02	n/a	RESPONSE	M3	2	19	G4	release
408.266	7.758	FIXCROSS	n/a	n/a	n/a	n/a	n/a
414.661	n/a	RESPONSE	M3	2	07	G3	release
416.025	6.325	CUE_LISTEN	M3	1	n/a	n/a	n/a
418.763	n/a	RESPONSE	M3	1	17	F4	press
422.246	n/a	RESPONSE	M3	1	17	F4	release
422.35	7.758	FIXCROSS	n/a	n/a	n/a	n/a	n/a
423.761	n/a	RESPONSE	M3	1	17	F4	press
423.772	n/a	RESPONSE	M3	1	19	G4	press
428.646	n/a	RESPONSE	M3	1	19	G4	release
429.686	n/a	RESPONSE	M3	1	17	F4	release
430.108	6.317	CUE_PLAYBACK_BOTH_HANDS	M3	1	n/a	n/a	n/a
430.567	n/a	RESPONSE	M3	1	00	C3	press
430.626	n/a	RESPONSE	M3	1	17	F4	press
430.936	n/a	RESPONSE	M3	1	19	G4	press
430.967	n/a	RESPONSE	M3	1	17	F4	release
431.388	n/a	RESPONSE	M3	1	19	G4	release
431.426	n/a	RESPONSE	M3	1	00	C3	release
432.007	n/a	RESPONSE	M3	1	17	F4	press
432.013	n/a	RESPONSE	M3	1	00	C3	press
432.375	n/a	RESPONSE	M3	1	19	G4	press
432.462	n/a	RESPONSE	M3	1	07	G3	press
432.47	n/a	RESPONSE	M3	1	17	F4	release
433.123	n/a	RESPONSE	M3	1	07	G3	release
433.175	n/a	RESPONSE	M3	1	00	C3	release
433.206	n/a	RESPONSE	M3	1	19	G4	release
433.347	n/a	RESPONSE	M3	1	00	C3	press
433.368	n/a	RESPONSE	M3	1	17	F4	press
433.71	n/a	RESPONSE	M3	1	19	G4	press
433.801	n/a	RESPONSE	M3	1	17	F4	release
434.073	n/a	RESPONSE	M3	1	07	G3	press
434.083	n/a	RESPONSE	M3	1	17	F4	press
434.405	n/a	RESPONSE	M3	1	16	E4	press
434.416	n/a	RESPONSE	M3	1	19	G4	release
434.627	n/a	RESPONSE	M3	1	07	G3	release
434.63	n/a	RESPONSE	M3	1	04	E3	press
434.78	n/a	RESPONSE	M3	1	17	F4	release
434.811	n/a	RESPONSE	M3	1	14	D4	press
434.942	n/a	RESPONSE	M3	1	16	E4	release
434.953	n/a	RESPONSE	M3	1	00	C3	release
435.846	n/a	RESPONSE	M3	1	07	G3	press
435.888	n/a	RESPONSE	M3	1	12	C4	press
435.937	n/a	RESPONSE	M3	1	04	E3	release
435.99	n/a	RESPONSE	M3	1	14	D4	release
436.425	7.759	FIXCROSS	n/a	n/a	n/a	n/a	n/a
437.831	n/a	RESPONSE	M3	1	12	C4	release
444.183	6.317	CUE_LISTEN	M3	2	n/a	n/a	n/a
449.353	n/a	RESPONSE	M3	2	07	G3	release
450.5	7.758	FIXCROSS	n/a	n/a	n/a	n/a	n/a
458.258	6.325	CUE_PLAYBACK_BOTH_HANDS	M3	2	n/a	n/a	n/a
459.272	n/a	RESPONSE	M3	2	00	C3	press
459.363	n/a	RESPONSE	M3	2	12	C4	press
459.933	n/a	RESPONSE	M3	2	00	C3	release
459.936	n/a	RESPONSE	M3	2	12	C4	release
460.038	n/a	RESPONSE	M3	2	07	G3	press
460.463	n/a	RESPONSE	M3	2	07	G3	release
460.708	n/a	RESPONSE	M3	2	00	C3	press
460.731	n/a	RESPONSE	M3	2	12	C4	press
461.897	n/a	RESPONSE	M3	2	12	C4	release
461.956	n/a	RESPONSE	M3	2	00	C3	release
462.887	n/a	RESPONSE	M3	2	00	C3	press
462.917	n/a	RESPONSE	M3	2	12	C4	press
463.33	n/a	RESPONSE	M3	2	12	C4	release
463.358	n/a	RESPONSE	M3	2	00	C3	release
463.5	n/a	RESPONSE	M3	2	07	G3	press
463.872	n/a	RESPONSE	M3	2	07	G3	release
464.052	n/a	RESPONSE	M3	2	00	C3	press
464.076	n/a	RESPONSE	M3	2	12	C4	press
464.583	7.758	FIXCROSS	n/a	n/a	n/a	n/a	n/a
464.955	n/a	RESPONSE	M3	2	00	C3	release
464.966	n/a	RESPONSE	M3	2	12	C4	release
472.341	6.317	CUE_LISTEN	M5	1	n/a	n/a	n/a
478.658	7.758	FIXCROSS	n/a	n/a	n/a	n/a	n/a
483.39	n/a	RESPONSE	M5	1	09	A3	press
484.022	n/a	RESPONSE	M5	1	09	A3	release
486.416	6.317	CUE_PLAYBACK_RIGHT_HAND	M5	1	n/a	n/a	n/a
487.412	n/a	RESPONSE	M5	1	21	A4	press
487.623	n/a	RESPONSE	M5	1	21	A4	release
487.705	n/a	RESPONSE	M5	1	21	A4	press
487.886	n/a	RESPONSE	M5	1	21	A4	release
487.977	n/a	RESPONSE	M5	1	21	A4	press
488.33	n/a	RESPONSE	M5	1	21	A4	release
488.49	n/a	RESPONSE	M5	1	21	A4	press
488.681	n/a	RESPONSE	M5	1	21	A4	release
488.762	n/a	RESPONSE	M5	1	21	A4	press
488.953	n/a	RESPONSE	M5	1	21	A4	release
489.055	n/a	RESPONSE	M5	1	21	A4	press
489.36	n/a	RESPONSE	M5	1	21	A4	release
489.567	n/a	RESPONSE	M5	1	21	A4	press
489.841	n/a	RESPONSE	M5	1	21	A4	release
489.867	n/a	RESPONSE	M5	1	24	C5	press
490.426	n/a	RESPONSE	M5	1	17	F4	press
490.536	n/a	RESPONSE	M5	1	24	C5	release
490.79	n/a	RESPONSE	M5	1	19	G4	press
490.881	n/a	RESPONSE	M5	1	17	F4	release
491.118	n/a	RESPONSE	M5	1	21	A4	press
491.21	n/a	RESPONSE	M5	1	19	G4	release
492.733	7.758	FIXCROSS	n/a	n/a	n/a	n/a	n/a
492.861	n/a	RESPONSE	M5	1	21	A4	release
500.492	6.325	CUE_LISTEN	M5	2	n/a	n/a	n/a
506.816	7.758	FIXCROSS	n/a	n/a	n/a	n/a	n/a
514.575	6.317	CUE_PLAYBACK_RIGHT_HAND	M5	2	n/a	n/a	n/a
515.065	n/a	RESPONSE	M5	2	22	A#4	press
515.346	n/a	RESPONSE	M5	2	22	A#4	release
515.477	n/a	RESPONSE	M5	2	22	A#4	press
515.761	n/a	RESPONSE	M5	2	22	A#4	release
515.88	n/a	RESPONSE	M5	2	22	A#4	press
516.161	n/a	RESPONSE	M5	2	22	A#4	release
516.312	n/a	RESPONSE	M5	2	22	A#4	press
516.606	n/a	RESPONSE	M5	2	22	A#4	release
516.795	n/a	RESPONSE	M5	2	22	A#4	press
517.148	n/a	RESPONSE	M5	2	22	A#4	release
517.257	n/a	RESPONSE	M5	2	21	A4	press
517.548	n/a	RESPONSE	M5	2	21	A4	release
517.7	n/a	RESPONSE	M5	2	21	A4	press
517.981	n/a	RESPONSE	M5	2	21	A4	release
518.152	n/a	RESPONSE	M5	2	21	A4	press
518.543	n/a	RESPONSE	M5	2	21	A4	release
519.267	n/a	RESPONSE	M5	2	21	A4	press
519.72	n/a	RESPONSE	M5	2	21	A4	release
519.951	n/a	RESPONSE	M5	2	19	G4	press
520.301	n/a	RESPONSE	M5	2	19	G4	release
520.431	n/a	RESPONSE	M5	2	19	G4	press
520.891	7.767	FIXCROSS	n/a	n/a	n/a	n/a	n/a
520.948	n/a	RESPONSE	M5	2	19	G4	release
521.031	n/a	RESPONSE	M5	2	21	A4	press
521.392	n/a	RESPONSE	M5	2	21	A4	release
521.418	n/a	RESPONSE	M5	2	19	G4	press
522.123	n/a	RESPONSE	M5	2	24	C5	press
522.155	n/a	RESPONSE	M5	2	19	G4	release
523.426	n/a	RESPONSE	M5	2	24	C5	release
528.658	6.308	CUE_LISTEN	M5	1	n/a	n/a	n/a
534.966	7.759	FIXCROSS	n/a	n/a	n/a	n/a	n/a
542.725	6.325	CUE_PLAYBACK_RIGHT_HAND	M5	1	n/a	n/a	n/a
543.707	n/a	RESPONSE	M5	1	21	A4	press
543.918	n/a	RESPONSE	M5	1	21	A4	release
544.02	n/a	RESPONSE	M5	1	21	A4	press
544.201	n/a	RESPONSE	M5	1	21	A4	release
544.292	n/a	RESPONSE	M5	1	21	A4	press
544.733	n/a	RESPONSE	M5	1	21	A4	release
544.865	n/a	RESPONSE	M5	1	21	A4	press
545.067	n/a	RESPONSE	M5	1	21	A4	release
545.147	n/a	RESPONSE	M5	1	21	A4	press
545.358	n/a	RESPONSE	M5	1	21	A4	release
545.46	n/a	RESPONSE	M5	1	21	A4	press
545.821	n/a	RESPONSE	M5	1	21	A4	release
546.062	n/a	RESPONSE	M5	1	21	A4	press
546.376	n/a	RESPONSE	M5	1	24	C5	press
546.405	n/a	RESPONSE	M5	1	21	A4	release
546.726	n/a	RESPONSE	M5	1	17	F4	press
547.077	n/a	RESPONSE	M5	1	19	G4	press
547.13	n/a	RESPONSE	M5	1	17	F4	release
547.14	n/a	RESPONSE	M5	1	24	C5	release
547.371	n/a	RESPONSE	M5	1	21	A4	press
547.683	n/a	RESPONSE	M5	1	19	G4	release
549.05	7.758	FIXCROSS	n/a	n/a	n/a	n/a	n/a
549.353	n/a	RESPONSE	M5	1	21	A4	release
556.808	6.317	CUE_LISTEN	M5	2	n/a	n/a	n/a
563.125	7.767	FIXCROSS	n/a	n/a	n/a	n/a	n/a
570.892	6.308	CUE_PLAYBACK_RIGHT_HAND	M5	2	n/a	n/a	n/a
571.91	n/a	RESPONSE	M5	2	22	A#4	press
572.13	n/a	RESPONSE	M5	2	22	A#4	release
572.224	n/a	RESPONSE	M5	2	22	A#4	press
572.456	n/a	RESPONSE	M5	2	22	A#4	release
572.552	n/a	RESPONSE	M5	2	22	A#4	press
572.791	n/a	RESPONSE	M5	2	22	A#4	release
572.891	n/a	RESPONSE	M5	2	22	A#4	press
573.122	n/a	RESPONSE	M5	2	22	A#4	release
573.225	n/a	RESPONSE	M5	2	22	A#4	press
573.474	n/a	RESPONSE	M5	2	22	A#4	release
573.566	n/a	RESPONSE	M5	2	22	A#4	press
573.927	n/a	RESPONSE	M5	2	22	A#4	release
573.998	n/a	RESPONSE	M5	2	21	A4	press
574.28	n/a	RESPONSE	M5	2	21	A4	release
574.421	n/a	RESPONSE	M5	2	21	A4	press
574.683	n/a	RESPONSE	M5	2	21	A4	release
574.813	n/a	RESPONSE	M5	2	21	A4	press
575.104	n/a	RESPONSE	M5	2	21	A4	release
575.266	n/a	RESPONSE	M5	2	24	C5	press
576.037	n/a	RESPONSE	M5	2	24	C5	release
576.151	n/a	RESPONSE	M5	2	24	C5	press
576.53	n/a	RESPONSE	M5	2	24	C5	release
576.671	n/a	RESPONSE	M5	2	22	A#4	press
577.2	7.758	FIXCROSS	n/a	n/a	n/a	n/a	n/a
577.312	n/a	RESPONSE	M5	2	19	G4	press
577.323	n/a	RESPONSE	M5	2	22	A#4	release
577.724	n/a	RESPONSE	M5	2	17	F4	press
577.756	n/a	RESPONSE	M5	2	19	G4	release
579.276	n/a	RESPONSE	M5	2	17	F4	release
584.958	6.325	CUE_LISTEN	M1	1	n/a	n/a	n/a
590.191	n/a	RESPONSE	M1	1	12	C4	press
591.068	n/a	RESPONSE	M1	1	12	C4	release
591.283	7.758	FIXCROSS	n/a	n/a	n/a	n/a	n/a
599.042	6.317	CUE_PLAYBACK_BOTH_HANDS	M1	1	n/a	n/a	n/a
599.941	n/a	RESPONSE	M1	1	00	C3	press
599.952	n/a	RESPONSE	M1	1	19	G4	press
599.972	n/a	RESPONSE	M1	1	09	A3	press
599.997	n/a	RESPONSE	M1	1	04	E3	press
600.506	n/a	RESPONSE	M1	1	16	E4	press
600.555	n/a	RESPONSE	M1	1	19	G4	release
600.796	n/a	RESPONSE	M1	1	16	E4	release
601.006	n/a	RESPONSE	M1	1	16	E4	press
601.557	n/a	RESPONSE	M1	1	16	E4	release
601.74	n/a	RESPONSE	M1	1	04	E3	release
601.876	n/a	RESPONSE	M1	1	00	C3	release
602.593	n/a	RESPONSE	M1	1	04	E3	press
602.614	n/a	RESPONSE	M1	1	17	F4	press
602.726	n/a	RESPONSE	M1	1	05	F3	press
602.747	n/a	RESPONSE	M1	1	00	C3	press
603.438	n/a	RESPONSE	M1	1	04	E3	release
603.58	n/a	RESPONSE	M1	1	17	F4	release
603.601	n/a	RESPONSE	M1	1	05	F3	release
603.642	n/a	RESPONSE	M1	1	09	A3	release
603.743	n/a	RESPONSE	M1	1	00	C3	release
603.994	n/a	RESPONSE	M1	1	05	F3	press
603.997	n/a	RESPONSE	M1	1	02	D3	press
604.0	n/a	RESPONSE	M1	1	17	F4	press
604.038	n/a	RESPONSE	M1	1	09	A3	press
604.6	n/a	RESPONSE	M1	1	14	D4	press
604.621	n/a	RESPONSE	M1	1	17	F4	release
604.922	n/a	RESPONSE	M1	1	14	D4	release
605.103	n/a	RESPONSE	M1	1	14	D4	press
605.358	7.758	FIXCROSS	n/a	n/a	n/a	n/a	n/a
605.557	n/a	RESPONSE	M1	1	14	D4	release
605.568	n/a	RESPONSE	M1	1	02	D3	release
605.627	n/a	RESPONSE	M1	1	05	F3	release
605.818	n/a	RESPONSE	M1	1	19	G4	press
605.821	n/a	RESPONSE	M1	1	04	E3	press
605.823	n/a	RESPONSE	M1	1	00	C3	press
606.322	n/a	RESPONSE	M1	1	16	E4	press
606.653	n/a	RESPONSE	M1	1	19	G4	release
606.874	n/a	RESPONSE	M1	1	16	E4	release
607.386	n/a	RESPONSE	M1	1	12	C4	press
607.657	n/a	RESPONSE	M1	1	16	E4	press
607.708	n/a	RESPONSE	M1	1	12	C4	release
607.991	n/a	RESPONSE	M1	1	19	G4	press
608.051	n/a	RESPONSE	M1	1	16	E4	release
608.562	n/a	RESPONSE	M1	1	09	A3	release
608.583	n/a	RESPONSE	M1	1	19	G4	release
608.764	n/a	RESPONSE	M1	1	04	E3	release
609.41	n/a	RESPONSE	M1	1	00	C3	release
612.271	n/a	RESPONSE	M1	1	07	G3	press
613.117	6.325	CUE_LISTEN	M1	2	n/a	n/a	n/a
613.977	n/a	RESPONSE	M1	2	07	G3	release
615.928	n/a	RESPONSE	M1	2	05	F3	press
616.148	n/a	RESPONSE	M1	2	07	G3	press
617.32	n/a	RESPONSE	M1	2	02	D3	press
617.643	n/a	RESPONSE	M1	2	07	G3	release
617.664	n/a	RESPONSE	M1	2	02	D3	release
617.873	n/a	RESPONSE	M1	2	05	F3	release
619.442	7.758	FIXCROSS	n/a	n/a	n/a	n/a	n/a
627.2	6.317	CUE_PLAYBACK_BOTH_HANDS	M1	2	n/a	n/a	n/a
627.911	n/a	RESPONSE	M1	2	07	G3	press
627.942	n/a	RESPONSE	M1	2	04	E3	press
627.953	n/a	RESPONSE	M1	2	19	G4	press
627.957	n/a	RESPONSE	M1	2	00	C3	press
628.426	n/a	RESPONSE	M1	2	19	G4	release
628.497	n/a	RESPONSE	M1	2	16	E4	press
628.798	n/a	RESPONSE	M1	2	16	E4	release
629.001	n/a	RESPONSE	M1	2	16	E4	press
629.466	n/a	RESPONSE	M1	2	16	E4	release
629.543	n/a	RESPONSE	M1	2	00	C3	release
629.552	n/a	RESPONSE	M1	2	04	E3	release
629.71	n/a	RESPONSE	M1	2	02	D3	press
629.724	n/a	RESPONSE	M1	2	05	F3	press
629.733	n/a	RESPONSE	M1	2	17	F4	press
630.203	n/a	RESPONSE	M1	2	17	F4	release
630.208	n/a	RESPONSE	M1	2	14	D4	press
630.513	n/a	RESPONSE	M1	2	14	D4	release
630.681	n/a	RESPONSE	M1	2	14	D4	press
631.162	n/a	RESPONSE	M1	2	02	D3	release
631.207	n/a	RESPONSE	M1	2	05	F3	release
631.266	n/a	RESPONSE	M1	2	14	D4	release
631.428	n/a	RESPONSE	M1	2	04	E3	press
631.431	n/a	RESPONSE	M1	2	00	C3	press
631.493	n/a	RESPONSE	M1	2	12	C4	press
631.902	n/a	RESPONSE	M1	2	12	C4	release
631.921	n/a	RESPONSE	M1	2	16	E4	press
632.283	n/a	RESPONSE	M1	2	16	E4	release
632.311	n/a	RESPONSE	M1	2	12	C4	press
633.47	n/a	RESPONSE	M1	2	12	C4	release
633.517	7.758	FIXCROSS	n/a	n/a	n/a	n/a	n/a
633.54	n/a	RESPONSE	M1	2	07	G3	release
633.562	n/a	RESPONSE	M1	2	04	E3	release
633.672	n/a	RESPONSE	M1	2	00	C3	release
641.275	6.317	CUE_LISTEN	M4	1	n/a	n/a	n/a
644.023	n/a	RESPONSE	M4	1	07	G3	press
645.662	n/a	RESPONSE	M4	1	07	G3	release
646.983	n/a	RESPONSE	M4	1	12	C4	press
647.592	7.758	FIXCROSS	n/a	n/a	n/a	n/a	n/a
655.35	6.325	CUE_PLAYBACK_RIGHT_HAND	M4	1	n/a	n/a	n/a
655.643	n/a	RESPONSE	M4	1	12	C4	release
655.884	n/a	RESPONSE	M4	1	12	C4	press
655.926	n/a	RESPONSE	M4	1	09	A3	press
656.35	n/a	RESPONSE	M4	1	09	A3	release
656.448	n/a	RESPONSE	M4	1	12	C4	release
656.922	n/a	RESPONSE	M4	1	12	C4	press
657.451	n/a	RESPONSE	M4	1	16	E4	press
658.202	n/a	RESPONSE	M4	1	12	C4	release
658.253	n/a	RESPONSE	M4	1	16	E4	release
658.434	n/a	RESPONSE	M4	1	12	C4	press
658.868	n/a	RESPONSE	M4	1	16	E4	press
659.484	n/a	RESPONSE	M4	1	21	A4	press
659.557	n/a	RESPONSE	M4	1	12	C4	release
659.567	n/a	RESPONSE	M4	1	16	E4	release
660.024	n/a	RESPONSE	M4	1	19	G4	press
660.032	n/a	RESPONSE	M4	1	17	F4	press
660.376	n/a	RESPONSE	M4	1	17	F4	release
660.536	n/a	RESPONSE	M4	1	19	G4	release
660.656	n/a	RESPONSE	M4	1	19	G4	press
661.126	n/a	RESPONSE	M4	1	17	F4	press
661.504	n/a	RESPONSE	M4	1	16	E4	press
661.512	n/a	RESPONSE	M4	1	19	G4	release
661.547	n/a	RESPONSE	M4	1	21	A4	release
661.623	n/a	RESPONSE	M4	1	17	F4	release
661.675	7.758	FIXCROSS	n/a	n/a	n/a	n/a	n/a
661.864	n/a	RESPONSE	M4	1	17	F4	press
661.958	n/a	RESPONSE	M4	1	16	E4	release
662.624	n/a	RESPONSE	M4	1	17	F4	release
662.676	n/a	RESPONSE	M4	1	14	D4	press
663.097	n/a	RESPONSE	M4	1	21	A4	press
663.578	n/a	RESPONSE	M4	1	14	D4	release
663.6	n/a	RESPONSE	M4	1	21	A4	release
664.971	n/a	RESPONSE	M4	1	12	C4	press
666.502	n/a	RESPONSE	M4	1	12	C4	release
669.433	6.317	CUE_LISTEN	M4	2	n/a	n/a	n/a
675.75	7.758	FIXCROSS	n/a	n/a	n/a	n/a	n/a
677.03	n/a	RESPONSE	M4	2	12	C4	press
680.58	n/a	RESPONSE	M4	2	12	C4	release
683.508	6.317	CUE_PLAYBACK_RIGHT_HAND	M4	2	n/a	n/a	n/a
684.098	n/a	RESPONSE	M4	2	12	C4	press
684.57	n/a	RESPONSE	M4	2	17	F4	press
684.653	n/a	RESPONSE	M4	2	12	C4	release
686.864	n/a	RESPONSE	M4	2	21	A4	press
686.964	n/a	RESPONSE	M4	2	17	F4	release
687.926	n/a	RESPONSE	M4	2	23	B4	press
688.297	n/a	RESPONSE	M4	2	23	B4	release
688.648	n/a	RESPONSE	M4	2	24	C5	press
688.792	n/a	RESPONSE	M4	2	21	A4	release
689.752	n/a	RESPONSE	M4	2	22	A#4	press
689.806	n/a	RESPONSE	M4	2	24	C5	release
689.825	7.758	FIXCROSS	n/a	n/a	n/a	n/a	n/a
690.53	n/a	RESPONSE	M4	2	21	A4	press
690.76	n/a	RESPONSE	M4	2	22	A#4	release
691.122	n/a	RESPONSE	M4	2	19	G4	press
691.268	n/a	RESPONSE	M4	2	21	A4	release
695.177	n/a	RESPONSE	M4	2	19	G4	release
697.128	n/a	RESPONSE	M4	2	12	C4	press
697.584	6.325	CUE_LISTEN	M2	1	n/a	n/a	n/a
698.172	n/a	RESPONSE	M2	1	12	C4	release
703.908	7.758	FIXCROSS	n/a	n/a	n/a	n/a	n/a
704.96	n/a	RESPONSE	M2	1	07	G3	press
706.963	n/a	RESPONSE	M2	1	04	E3	press
709.426	n/a	RESPONSE	M2	1	04	E3	release
710.08	n/a	RESPONSE	M2	1	24	C5	press
711.667	6.317	CUE_PLAYBACK_BOTH_HANDS	M2	1	n/a	n/a	n/a
712.002	n/a	RESPONSE	M2	1	19	G4	press
712.71	n/a	RESPONSE	M2	1	24	C5	release
712.731	n/a	RESPONSE	M2	1	19	G4	release
713.622	n/a	RESPONSE	M2	1	24	C5	press
713.636	n/a	RESPONSE	M2	1	00	C3	press
714.155	n/a	RESPONSE	M2	1	19	G4	press
714.168	n/a	RESPONSE	M2	1	21	A4	press
714.18	n/a	RESPONSE	M2	1	24	C5	release
714.318	n/a	RESPONSE	M2	1	21	A4	release
714.36	n/a	RESPONSE	M2	1	19	G4	release
714.363	n/a	RESPONSE	M2	1	00	C3	release
715.052	n/a	RESPONSE	M2	1	24	C5	press
715.066	n/a	RESPONSE	M2	1	00	C3	press
715.484	n/a	RESPONSE	M2	1	19	G4	press
715.496	n/a	RESPONSE	M2	1	21	A4	press
715.577	n/a	RESPONSE	M2	1	24	C5	release
715.608	n/a	RESPONSE	M2	1	21	A4	release
715.71	n/a	RESPONSE	M2	1	19	G4	release
715.803	n/a	RESPONSE	M2	1	00	C3	release
716.282	n/a	RESPONSE	M2	1	07	G3	release
716.484	n/a	RESPONSE	M2	1	24	C5	press
716.504	n/a	RESPONSE	M2	1	00	C3	press
716.516	n/a	RESPONSE	M2	1	07	G3	press
716.987	n/a	RESPONSE	M2	1	24	C5	release
716.99	n/a	RESPONSE	M2	1	19	G4	press
717.18	n/a	RESPONSE	M2	1	19	G4	release
717.411	n/a	RESPONSE	M2	1	19	G4	press
717.842	n/a	RESPONSE	M2	1	17	F4	press
717.983	n/a	RESPONSE	M2	1	19	G4	release
717.983	7.758	FIXCROSS	n/a	n/a	n/a	n/a	n/a
718.274	n/a	RESPONSE	M2	1	16	E4	press
718.436	n/a	RESPONSE	M2	1	17	F4	release
718.68	n/a	RESPONSE	M2	1	17	F4	press
718.808	n/a	RESPONSE	M2	1	16	E4	release
719.111	n/a	RESPONSE	M2	1	19	G4	press
719.19	n/a	RESPONSE	M2	1	17	F4	release
720.341	n/a	RESPONSE	M2	1	19	G4	release
725.742	6.317	CUE_LISTEN	M2	2	n/a	n/a	n/a
726.412	n/a	RESPONSE	M2	2	00	C3	release
726.473	n/a	RESPONSE	M2	2	07	G3	release
732.058	7.758	FIXCROSS	n/a	n/a	n/a	n/a	n/a
739.817	6.325	CUE_PLAYBACK_BOTH_HANDS	M2	2	n/a	n/a	n/a
741.064	n/a	RESPONSE	M2	2	00	C3	press
741.08	n/a	RESPONSE	M2	2	24	C5	press
741.086	n/a	RESPONSE	M2	2	07	G3	press
741.616	n/a	RESPONSE	M2	2	19	G4	press
741.65	n/a	RESPONSE	M2	2	24	C5	release
741.832	n/a	RESPONSE	M2	2	19	G4	release
741.851	n/a	RESPONSE	M2	2	00	C3	release
742.063	n/a	RESPONSE	M2	2	00	C3	press
742.067	n/a	RESPONSE	M2	2	19	G4	press
742.516	n/a	RESPONSE	M2	2	17	F4	press
742.656	n/a	RESPONSE	M2	2	19	G4	release
742.996	n/a	RESPONSE	M2	2	17	F4	release
742.998	n/a	RESPONSE	M2	2	16	E4	press
743.918	n/a	RESPONSE	M2	2	00	C3	release
743.959	n/a	RESPONSE	M2	2	14	D4	press
744.052	n/a	RESPONSE	M2	2	00	C3	press
744.132	n/a	RESPONSE	M2	2	16	E4	release
744.633	n/a	RESPONSE	M2	2	07	G3	release
744.636	n/a	RESPONSE	M2	2	00	C3	release
744.887	n/a	RESPONSE	M2	2	14	D4	release
745.007	n/a	RESPONSE	M2	2	00	C3	press
745.018	n/a	RESPONSE	M2	2	07	G3	press
745.042	n/a	RESPONSE	M2	2	12	C4	press
746.142	7.758	FIXCROSS	n/a	n/a	n/a	n/a	n/a
746.501	n/a	RESPONSE	M2	2	00	C3	release
746.622	n/a	RESPONSE	M2	2	12	C4	release
753.9	6.317	CUE_LISTEN	M2	1	n/a	n/a	n/a
760.217	7.758	FIXCROSS	n/a	n/a	n/a	n/a	n/a
767.975	6.317	CUE_PLAYBACK_BOTH_HANDS	M2	1	n/a	n/a	n/a
768.324	n/a	RESPONSE	M2	1	07	G3	release
769.098	n/a	RESPONSE	M2	1	00	C3	press
769.107	n/a	RESPONSE	M2	1	07	G3	press
769.154	n/a	RESPONSE	M2	1	12	C4	press
769.65	n/a	RESPONSE	M2	1	14	D4	press
769.986	n/a	RESPONSE	M2	1	12	C4	release
771.159	n/a	RESPONSE	M2	1	14	D4	release
771.201	n/a	RESPONSE	M2	1	16	E4	press
771.874	n/a	RESPONSE	M2	1	07	G3	release
771.884	n/a	RESPONSE	M2	1	00	C3	release
771.894	n/a	RESPONSE	M2	1	16	E4	release
771.971	n/a	RESPONSE	M2	1	00	C3	press
771.991	n/a	RESPONSE	M2	1	07	G3	press
771.996	n/a	RESPONSE	M2	1	16	E4	press
772.648	n/a	RESPONSE	M2	1	14	D4	press
772.699	n/a	RESPONSE	M2	1	16	E4	release
772.871	n/a	RESPONSE	M2	1	00	C3	release
773.043	n/a	RESPONSE	M2	1	14	D4	release
773.263	n/a	RESPONSE	M2	1	00	C3	press
773.274	n/a	RESPONSE	M2	1	16	E4	press
773.727	n/a	RESPONSE	M2	1	17	F4	press
773.847	n/a	RESPONSE	M2	1	16	E4	release
773.999	n/a	RESPONSE	M2	1	07	G3	release
774.019	n/a	RESPONSE	M2	1	00	C3	release
774.022	n/a	RESPONSE	M2	1	17	F4	release
774.233	n/a	RESPONSE	M2	1	00	C3	press
774.243	n/a	RESPONSE	M2	1	19	G4	press
774.254	n/a	RESPONSE	M2	1	07	G3	press
774.292	7.758	FIXCROSS	n/a	n/a	n/a	n/a	n/a
775.388	n/a	RESPONSE	M2	1	00	C3	release
775.509	n/a	RESPONSE	M2	1	19	G4	release
782.05	6.325	CUE_LISTEN	M2	2	n/a	n/a	n/a
788.375	7.758	FIXCROSS	n/a	n/a	n/a	n/a	n/a
796.134	6.317	CUE_PLAYBACK_BOTH_HANDS	M2	2	n/a	n/a	n/a
797.024	n/a	RESPONSE	M2	2	07	G3	release
798.116	n/a	RESPONSE	M2	2	00	C3	press
798.127	n/a	RESPONSE	M2	2	07	G3	press
798.151	n/a	RESPONSE	M2	2	16	E4	press
798.689	n/a	RESPONSE	M2	2	19	G4	press
798.762	n/a	RESPONSE	M2	2	16	E4	release
798.902	n/a	RESPONSE	M2	2	07	G3	release
798.923	n/a	RESPONSE	M2	2	00	C3	release
798.954	n/a	RESPONSE	M2	2	19	G4	release
799.15	n/a	RESPONSE	M2	2	00	C3	press
799.164	n/a	RESPONSE	M2	2	07	G3	press
799.171	n/a	RESPONSE	M2	2	19	G4	press
799.656	n/a	RESPONSE	M2	2	17	F4	press
799.862	n/a	RESPONSE	M2	2	19	G4	release
799.981	n/a	RESPONSE	M2	2	07	G3	release
800.022	n/a	RESPONSE	M2	2	17	F4	release
800.063	n/a	RESPONSE	M2	2	00	C3	release
800.146	n/a	RESPONSE	M2	2	00	C3	press
800.163	n/a	RESPONSE	M2	2	07	G3	press
800.168	n/a	RESPONSE	M2	2	16	E4	press
800.671	n/a	RESPONSE	M2	2	14	D4	press
800.741	n/a	RESPONSE	M2	2	16	E4	release
800.927	n/a	RESPONSE	M2	2	00	C3	release
800.968	n/a	RESPONSE	M2	2	14	D4	release
801.008	n/a	RESPONSE	M2	2	07	G3	release
801.14	n/a	RESPONSE	M2	2	00	C3	press
801.142	n/a	RESPONSE	M2	2	07	G3	press
801.144	n/a	RESPONSE	M2	2	12	C4	press
802.45	7.758	FIXCROSS	n/a	n/a	n/a	n/a	n/a
802.453	n/a	RESPONSE	M2	2	00	C3	release
802.541	n/a	RESPONSE	M2	2	12	C4	release
810.209	6.317	CUE_LISTEN	M3	1	n/a	n/a	n/a
811.126	n/a	RESPONSE	M3	1	07	G3	release
814.446	n/a	RESPONSE	M3	1	07	G3	press
816.525	7.758	FIXCROSS	n/a	n/a	n/a	n/a	n/a
817.208	n/a	RESPONSE	M3	1	16	E4	press
817.799	n/a	RESPONSE	M3	1	07	G3	release
818.051	n/a	RESPONSE	M3	1	16	E4	release
818.722	n/a	RESPONSE	M3	1	07	G3	press
819.434	n/a	RESPONSE	M3	1	05	F3	press
819.761	n/a	RESPONSE	M3	1	07	G3	release
820.032	n/a	RESPONSE	M3	1	04	E3	press
820.54	n/a	RESPONSE	M3	1	05	F3	release
820.73	n/a	RESPONSE	M3	1	04	E3	release
824.284	6.325	CUE_PLAYBACK_RIGHT_HAND	M3	1	n/a	n/a	n/a
825.468	n/a	RESPONSE	M3	1	12	C4	press
825.999	n/a	RESPONSE	M3	1	14	D4	press
826.441	n/a	RESPONSE	M3	1	12	C4	release
826.493	n/a	RESPONSE	M3	1	16	E4	press
826.747	n/a	RESPONSE	M3	1	14	D4	release
826.986	n/a	RESPONSE	M3	1	12	C4	press
827.017	n/a	RESPONSE	M3	1	16	E4	release
827.278	n/a	RESPONSE	M3	1	12	C4	release
827.469	n/a	RESPONSE	M3	1	12	C4	press
827.931	n/a	RESPONSE	M3	1	14	D4	press
828.033	n/a	RESPONSE	M3	1	12	C4	release
828.393	n/a	RESPONSE	M3	1	16	E4	press
828.464	n/a	RESPONSE	M3	1	14	D4	release
828.866	n/a	RESPONSE	M3	1	12	C4	press
828.972	n/a	RESPONSE	M3	1	16	E4	release
829.521	n/a	RESPONSE	M3	1	12	C4	release
830.609	7.758	FIXCROSS	n/a	n/a	n/a	n/a	n/a
838.367	6.317	CUE_LISTEN	M3	2	n/a	n/a	n/a
844.684	7.758	FIXCROSS	n/a	n/a	n/a	n/a	n/a
852.442	6.325	CUE_PLAYBACK_RIGHT_HAND	M3	2	n/a	n/a	n/a
853.539	n/a	RESPONSE	M3	2	16	E4	press
853.991	n/a	RESPONSE	M3	2	17	F4	press
854.072	n/a	RESPONSE	M3	2	16	E4	release
854.463	n/a	RESPONSE	M3	2	19	G4	press
854.507	n/a	RESPONSE	M3	2	17	F4	release
855.308	n/a	RESPONSE	M3	2	16	E4	press
855.317	n/a	RESPONSE	M3	2	19	G4	release
855.778	n/a	RESPONSE	M3	2	17	F4	press
855.789	n/a	RESPONSE	M3	2	16	E4	release
856.302	n/a	RESPONSE	M3	2	19	G4	press
856.332	n/a	RESPONSE	M3	2	17	F4	release
857.203	n/a	RESPONSE	M3	2	19	G4	release
858.767	7.758	FIXCROSS	n/a	n/a	n/a	n/a	n/a
865.304	n/a	RESPONSE	M3	2	21	A4	press
866.525	6.317	CUE_LISTEN	M3	1	n/a	n/a	n/a
872.457	n/a	RESPONSE	M3	1	21	A4	release
872.842	7.758	FIXCROSS	n/a	n/a	n/a	n/a	n/a
880.6	6.317	CUE_PLAYBACK_RIGHT_HAND	M3	1	n/a	n/a	n/a
881.148	n/a	RESPONSE	M3	1	19	G4	press
881.471	n/a	RESPONSE	M3	1	21	A4	press
881.514	n/a	RESPONSE	M3	1	19	G4	release
881.749	n/a	RESPONSE	M3	1	19	G4	press
882.087	n/a	RESPONSE	M3	1	17	F4	press
882.131	n/a	RESPONSE	M3	1	21	A4	release
882.37	n/a	RESPONSE	M3	1	19	G4	release
882.474	n/a	RESPONSE	M3	1	16	E4	press
884.106	n/a	RESPONSE	M3	1	12	C4	press
884.396	n/a	RESPONSE	M3	1	16	E4	release
884.628	n/a	RESPONSE	M3	1	17	F4	release
884.678	n/a	RESPONSE	M3	1	12	C4	release
885.109	n/a	RESPONSE	M3	1	17	F4	press
885.381	n/a	RESPONSE	M3	1	17	F4	release
885.653	n/a	RESPONSE	M3	1	19	G4	press
885.933	n/a	RESPONSE	M3	1	21	A4	press
885.987	n/a	RESPONSE	M3	1	19	G4	release
886.216	n/a	RESPONSE	M3	1	19	G4	press
886.569	n/a	RESPONSE	M3	1	17	F4	press
886.618	n/a	RESPONSE	M3	1	21	A4	release
886.917	7.758	FIXCROSS	n/a	n/a	n/a	n/a	n/a
886.949	n/a	RESPONSE	M3	1	19	G4	release
887.061	n/a	RESPONSE	M3	1	16	E4	press
887.342	n/a	RESPONSE	M3	1	17	F4	release
888.203	n/a	RESPONSE	M3	1	17	F4	press
888.394	n/a	RESPONSE	M3	1	16	E4	release
888.416	n/a	RESPONSE	M3	1	17	F4	release
888.418	n/a	RESPONSE	M3	1	12	C4	press
889.718	n/a	RESPONSE	M3	1	12	C4	release
894.675	6.317	CUE_LISTEN	M3	2	n/a	n/a	n/a
900.992	7.759	FIXCROSS	n/a	n/a	n/a	n/a	n/a
908.75	188.571	CUE_PLAYBACK_RIGHT_HAND	M3	2	n/a	n/a	n/a
909.668	n/a	RESPONSE	M3	2	12	C4	press
910.002	n/a	RESPONSE	M3	2	12	C4	release
910.623	n/a	RESPONSE	M3	2	07	G3	press
911.056	n/a	RESPONSE	M3	2	07	G3	release
911.172	n/a	RESPONSE	M3	2	07	G3	press
911.564	n/a	RESPONSE	M3	2	07	G3	release
912.467	n/a	RESPONSE	M3	2	12	C4	press
913.107	n/a	RESPONSE	M3	2	12	C4	release
913.241	n/a	FIXCROSS	n/a	n/a	n/a	n/a	n/a
913.419	n/a	RESPONSE	M3	2	12	C4	press
913.719	n/a	RESPONSE	M3	2	12	C4	release
914.141	n/a	RESPONSE	M3	2	07	G3	press
914.433	n/a	RESPONSE	M3	2	07	G3	release
915.073	n/a	RESPONSE	M3	2	12	C4	press
915.784	n/a	RESPONSE	M3	2	12	C4	release
915.978	n/a	RESPONSE	M3	2	12	C4	press
916.277	n/a	RESPONSE	M3	2	12	C4	release
996.272	n/a	RESPONSE	M3	2	09	A3	press
996.703	n/a	RESPONSE	M3	2	09	A3	release
