onset	duration	trial_type	braille_stimulus	targets	response_count
2.013	2.008	CUE_REST	n/a	n/a	n/a
7.013	1.008	FIXCROSS	n/a	n/a	n/a
13.063	1.008	FIXCROSS	n/a	n/a	n/a
21.122	2.008	CUE_6_DOT	n/a	n/a	n/a
26.122	1.008	FIXCROSS	n/a	n/a	n/a
27.138	5.008	6_DOT_DETECTION	USLLM	0	n/a
32.172	1.008	FIXCROSS	n/a	n/a	n/a
33.188	5.008	6_DOT_DETECTION	BAŁ#Ł	1	n/a
38.222	1.008	FIXCROSS	n/a	n/a	n/a
39.238	5.008	6_DOT_DETECTION	#IŁPM	1	n/a
41.544	n/a	RESPONSE	n/a	n/a	1/1
44.272	1.008	FIXCROSS	n/a	n/a	n/a
45.288	5.008	6_DOT_DETECTION	BAT##	2	n/a
48.104	n/a	RESPONSE	n/a	n/a	1/2
50.322	1.008	FIXCROSS	n/a	n/a	n/a
51.338	5.008	6_DOT_DETECTION	LACIC	0	n/a
56.372	1.008	FIXCROSS	n/a	n/a	n/a
57.388	5.008	6_DOT_DETECTION	I#YUK	1	n/a
60.104	n/a	RESPONSE	n/a	n/a	1/1
62.422	1.008	FIXCROSS	n/a	n/a	n/a
63.438	5.008	6_DOT_DETECTION	IDY#K	1	n/a
67.664	n/a	RESPONSE	n/a	n/a	1/1
68.472	1.008	FIXCROSS	n/a	n/a	n/a
69.488	5.009	6_DOT_DETECTION	I#TUL	1	n/a
71.464	n/a	RESPONSE	n/a	n/a	1/1
76.03	2.008	CUE_REST	n/a	n/a	n/a
82.53	1.008	FIXCROSS	n/a	n/a	n/a
88.58	1.008	FIXCROSS	n/a	n/a	n/a
95.638	2.008	CUE_6_DOT	n/a	n/a	n/a
100.638	1.008	FIXCROSS	n/a	n/a	n/a
101.655	5.009	6_DOT_DETECTION	#CYK#	2	n/a
104.104	n/a	RESPONSE	n/a	n/a	1/2
105.464	n/a	RESPONSE	n/a	n/a	2/2
106.688	1.008	FIXCROSS	n/a	n/a	n/a
107.705	5.008	6_DOT_DETECTION	BOI##	2	n/a
110.744	n/a	RESPONSE	n/a	n/a	1/2
111.704	n/a	RESPONSE	n/a	n/a	2/2
112.738	1.008	FIXCROSS	n/a	n/a	n/a
113.755	5.009	6_DOT_DETECTION	PM#LA	1	n/a
116.424	n/a	RESPONSE	n/a	n/a	1/1
118.789	1.008	FIXCROSS	n/a	n/a	n/a
119.805	5.008	6_DOT_DETECTION	O#KUP	1	n/a
121.984	n/a	RESPONSE	n/a	n/a	1/1
124.839	1.008	FIXCROSS	n/a	n/a	n/a
125.855	5.008	6_DOT_DETECTION	#PSY#	2	n/a
128.464	n/a	RESPONSE	n/a	n/a	1/2
130.144	n/a	RESPONSE	n/a	n/a	2/2
130.889	1.008	FIXCROSS	n/a	n/a	n/a
131.905	5.008	6_DOT_DETECTION	IE##T	2	n/a
134.56	n/a	RESPONSE	n/a	n/a	1/2
136.12	n/a	RESPONSE	n/a	n/a	2/2
136.939	1.008	FIXCROSS	n/a	n/a	n/a
137.955	5.009	6_DOT_DETECTION	##ŁAT	2	n/a
140.984	n/a	RESPONSE	n/a	n/a	1/2
141.744	n/a	RESPONSE	n/a	n/a	2/2
142.989	1.008	FIXCROSS	n/a	n/a	n/a
144.005	5.008	6_DOT_DETECTION	IEYYŁ	0	n/a
150.547	2.008	CUE_REST	n/a	n/a	n/a
155.047	1.008	FIXCROSS	n/a	n/a	n/a
161.097	1.008	FIXCROSS	n/a	n/a	n/a
168.655	2.008	CUE_6_DOT	n/a	n/a	n/a
175.155	1.008	FIXCROSS	n/a	n/a	n/a
176.172	5.008	6_DOT_DETECTION	PUŁTM	0	n/a
181.205	1.008	FIXCROSS	n/a	n/a	n/a
182.222	5.009	6_DOT_DETECTION	PAS##	2	n/a
185.344	n/a	RESPONSE	n/a	n/a	1/2
186.24	n/a	RESPONSE	n/a	n/a	2/2
187.255	1.008	FIXCROSS	n/a	n/a	n/a
188.272	5.008	6_DOT_DETECTION	#SIŁ#	2	n/a
189.92	n/a	RESPONSE	n/a	n/a	1/2
192.04	n/a	RESPONSE	n/a	n/a	2/2
193.305	1.008	FIXCROSS	n/a	n/a	n/a
194.322	5.008	6_DOT_DETECTION	#SOS#	2	n/a
195.944	n/a	RESPONSE	n/a	n/a	1/2
197.88	n/a	RESPONSE	n/a	n/a	2/2
199.355	1.008	FIXCROSS	n/a	n/a	n/a
200.372	5.008	6_DOT_DETECTION	##TOM	2	n/a
201.944	n/a	RESPONSE	n/a	n/a	1/2
203.144	n/a	RESPONSE	n/a	n/a	2/2
205.405	1.008	FIXCROSS	n/a	n/a	n/a
206.422	5.008	6_DOT_DETECTION	LLCSO	0	n/a
211.455	1.008	FIXCROSS	n/a	n/a	n/a
212.472	5.008	6_DOT_DETECTION	LUD#A	1	n/a
214.92	n/a	RESPONSE	n/a	n/a	1/1
217.506	1.008	FIXCROSS	n/a	n/a	n/a
218.522	5.008	6_DOT_DETECTION	##ALE	2	n/a
219.984	n/a	RESPONSE	n/a	n/a	1/2
225.564	2.008	CUE_REST	n/a	n/a	n/a
229.564	1.008	FIXCROSS	n/a	n/a	n/a
235.614	1.008	FIXCROSS	n/a	n/a	n/a
243.672	2.008	CUE_6_DOT	n/a	n/a	n/a
249.672	1.008	FIXCROSS	n/a	n/a	n/a
250.689	5.008	6_DOT_DETECTION	ŁDKID	0	n/a
255.722	1.008	FIXCROSS	n/a	n/a	n/a
256.738	5.009	6_DOT_DETECTION	LIP##	2	n/a
259.56	n/a	RESPONSE	n/a	n/a	1/2
261.772	1.008	FIXCROSS	n/a	n/a	n/a
262.789	5.008	6_DOT_DETECTION	TOP#C	1	n/a
265.8	n/a	RESPONSE	n/a	n/a	1/1
267.822	1.008	FIXCROSS	n/a	n/a	n/a
268.839	5.008	6_DOT_DETECTION	ŁL#BM	1	n/a
271.0	n/a	RESPONSE	n/a	n/a	1/1
273.872	1.008	FIXCROSS	n/a	n/a	n/a
274.888	5.009	6_DOT_DETECTION	##ŁOM	2	n/a
276.56	n/a	RESPONSE	n/a	n/a	1/2
277.864	n/a	RESPONSE	n/a	n/a	2/2
279.922	1.008	FIXCROSS	n/a	n/a	n/a
280.938	5.009	6_DOT_DETECTION	U#TŁA	1	n/a
283.144	n/a	RESPONSE	n/a	n/a	1/1
285.972	1.008	FIXCROSS	n/a	n/a	n/a
286.988	5.009	6_DOT_DETECTION	##BAS	2	n/a
288.464	n/a	RESPONSE	n/a	n/a	1/2
289.24	n/a	RESPONSE	n/a	n/a	2/2
292.022	1.008	FIXCROSS	n/a	n/a	n/a
293.039	5.008	6_DOT_DETECTION	PMSPB	0	n/a
299.081	2.008	CUE_REST	n/a	n/a	n/a
305.081	1.008	FIXCROSS	n/a	n/a	n/a
311.131	1.008	FIXCROSS	n/a	n/a	n/a
318.689	2.008	CUE_6_DOT	n/a	n/a	n/a
324.189	1.008	FIXCROSS	n/a	n/a	n/a
325.206	5.008	6_DOT_DETECTION	KOD#S	1	n/a
328.144	n/a	RESPONSE	n/a	n/a	1/1
330.239	1.008	FIXCROSS	n/a	n/a	n/a
331.256	5.008	6_DOT_DETECTION	IIOLD	0	n/a
336.289	1.008	FIXCROSS	n/a	n/a	n/a
337.306	5.008	6_DOT_DETECTION	LUK#C	1	n/a
339.96	n/a	RESPONSE	n/a	n/a	1/1
342.339	1.008	FIXCROSS	n/a	n/a	n/a
343.355	5.009	6_DOT_DETECTION	ICE#D	1	n/a
348.389	1.008	FIXCROSS	n/a	n/a	n/a
349.406	5.008	6_DOT_DETECTION	DB#A#	2	n/a
352.48	n/a	RESPONSE	n/a	n/a	1/2
353.88	n/a	RESPONSE	n/a	n/a	2/2
354.439	1.008	FIXCROSS	n/a	n/a	n/a
355.456	5.008	6_DOT_DETECTION	AKŁKŁ	0	n/a
360.489	1.008	FIXCROSS	n/a	n/a	n/a
361.506	5.008	6_DOT_DETECTION	ŁBTŁB	0	n/a
366.539	1.008	FIXCROSS	n/a	n/a	n/a
367.556	5.008	6_DOT_DETECTION	IŁPDU	0	n/a
373.598	2.008	CUE_REST	n/a	n/a	n/a
380.598	1.008	FIXCROSS	n/a	n/a	n/a
386.648	1.008	FIXCROSS	n/a	n/a	n/a
393.706	2.008	CUE_6_DOT	n/a	n/a	n/a
398.706	1.008	FIXCROSS	n/a	n/a	n/a
399.722	5.009	6_DOT_DETECTION	LDCCE	0	n/a
404.756	1.008	FIXCROSS	n/a	n/a	n/a
405.773	5.008	6_DOT_DETECTION	UM#LD	1	n/a
408.776	n/a	RESPONSE	n/a	n/a	1/1
410.806	1.008	FIXCROSS	n/a	n/a	n/a
411.822	5.009	6_DOT_DETECTION	ŁYYŁT	0	n/a
416.04	n/a	RESPONSE	n/a	n/a	1/0
416.856	1.008	FIXCROSS	n/a	n/a	n/a
417.872	5.009	6_DOT_DETECTION	AŁUAI	0	n/a
422.906	1.008	FIXCROSS	n/a	n/a	n/a
423.923	5.008	6_DOT_DETECTION	KUL##	2	n/a
427.176	n/a	RESPONSE	n/a	n/a	1/2
428.2	n/a	RESPONSE	n/a	n/a	2/2
428.956	1.008	FIXCROSS	n/a	n/a	n/a
429.973	5.008	6_DOT_DETECTION	MTCUE	0	n/a
435.006	1.008	FIXCROSS	n/a	n/a	n/a
436.023	5.008	6_DOT_DETECTION	ŁLTŁP	0	n/a
441.056	1.008	FIXCROSS	n/a	n/a	n/a
442.073	5.008	6_DOT_DETECTION	L#OSY	1	n/a
444.056	n/a	RESPONSE	n/a	n/a	1/1
