onset	duration	trial_type	trial_number	stroop_condition	stim_text(PL)	stim_text(eng)	stim_color(PL)	stim_color(eng)	response_type	response_color
0.0	n/a	RESPONSE	n/a	n/a	n/a	n/a	n/a	n/a	n/a	n/a
0.0523	1.0333	ITI	n/a	n/a	n/a	n/a	n/a	n/a	n/a	n/a
1.0857	0.5167	FIXCROSS	n/a	n/a	n/a	n/a	n/a	n/a	n/a	n/a
1.6024	1.9667	T_INK	1	Incongruent	czerwony	red	niebieski	blue	hit	n/a
3.5475	n/a	RESPONSE	n/a	n/a	n/a	n/a	n/a	n/a	n/a	blue
3.5691	0.5167	FEEDBACK	n/a	n/a	n/a	n/a	n/a	n/a	n/a	n/a
4.0857	1.0167	ITI	n/a	n/a	n/a	n/a	n/a	n/a	n/a	n/a
5.1024	0.5167	FIXCROSS	n/a	n/a	n/a	n/a	n/a	n/a	n/a	n/a
5.6191	0.9833	T_INK	2	Neutral	xxxxxxxxx	xxxxxxxxx	czerwony	red	hit	n/a
6.5676	n/a	RESPONSE	n/a	n/a	n/a	n/a	n/a	n/a	n/a	red
6.6024	0.5167	FEEDBACK	n/a	n/a	n/a	n/a	n/a	n/a	n/a	n/a
7.1191	1.0167	ITI	n/a	n/a	n/a	n/a	n/a	n/a	n/a	n/a
8.1357	0.5167	FIXCROSS	n/a	n/a	n/a	n/a	n/a	n/a	n/a	n/a
8.6524	1.1	T_INK	3	Neutral	xxxxxxxxx	xxxxxxxxx	zielony	green	hit	n/a
9.7155	n/a	RESPONSE	n/a	n/a	n/a	n/a	n/a	n/a	n/a	green
9.7524	0.5167	FEEDBACK	n/a	n/a	n/a	n/a	n/a	n/a	n/a	n/a
10.2691	1.0167	ITI	n/a	n/a	n/a	n/a	n/a	n/a	n/a	n/a
11.2858	0.5167	FIXCROSS	n/a	n/a	n/a	n/a	n/a	n/a	n/a	n/a
11.8024	1.0334	T_INK	4	Incongruent	zielony	green	czerwony	red	incorrect	n/a
12.7996	n/a	RESPONSE	n/a	n/a	n/a	n/a	n/a	n/a	n/a	green
12.8358	0.5167	FEEDBACK	n/a	n/a	n/a	n/a	n/a	n/a	n/a	n/a
13.3525	1.0167	ITI	n/a	n/a	n/a	n/a	n/a	n/a	n/a	n/a
14.3691	0.5167	FIXCROSS	n/a	n/a	n/a	n/a	n/a	n/a	n/a	n/a
14.8858	1.25	T_INK	5	Neutral	xxxxx	xxxxx	zielony	green	hit	n/a
16.1074	n/a	RESPONSE	n/a	n/a	n/a	n/a	n/a	n/a	n/a	green
16.1358	0.5167	FEEDBACK	n/a	n/a	n/a	n/a	n/a	n/a	n/a	n/a
16.2672	n/a	RESPONSE	n/a	n/a	n/a	n/a	n/a	n/a	n/a	green
16.6525	1.0167	ITI	n/a	n/a	n/a	n/a	n/a	n/a	n/a	n/a
17.6692	0.5167	FIXCROSS	n/a	n/a	n/a	n/a	n/a	n/a	n/a	n/a
18.1858	1.1667	T_INK	6	Incongruent	zielony	green	niebieski	blue	hit	n/a
19.3192	n/a	RESPONSE	n/a	n/a	n/a	n/a	n/a	n/a	n/a	blue
19.3525	0.5167	FEEDBACK	n/a	n/a	n/a	n/a	n/a	n/a	n/a	n/a
19.8692	1.0167	ITI	n/a	n/a	n/a	n/a	n/a	n/a	n/a	n/a
20.8859	0.5167	FIXCROSS	n/a	n/a	n/a	n/a	n/a	n/a	n/a	n/a
21.4025	0.8333	T_INK	7	Neutral	xxxxxxxx	xxxxxxxx	niebieski	blue	hit	n/a
22.2116	n/a	RESPONSE	n/a	n/a	n/a	n/a	n/a	n/a	n/a	blue
22.2359	0.5167	FEEDBACK	n/a	n/a	n/a	n/a	n/a	n/a	n/a	n/a
22.7525	1.0167	ITI	n/a	n/a	n/a	n/a	n/a	n/a	n/a	n/a
23.7692	0.5167	FIXCROSS	n/a	n/a	n/a	n/a	n/a	n/a	n/a	n/a
24.2859	1.0167	T_INK	8	Neutral	xxxxx	xxxxx	niebieski	blue	hit	n/a
25.2637	n/a	RESPONSE	n/a	n/a	n/a	n/a	n/a	n/a	n/a	blue
25.3026	0.5167	FEEDBACK	n/a	n/a	n/a	n/a	n/a	n/a	n/a	n/a
25.8192	1.0167	ITI	n/a	n/a	n/a	n/a	n/a	n/a	n/a	n/a
26.8359	0.5167	FIXCROSS	n/a	n/a	n/a	n/a	n/a	n/a	n/a	n/a
27.3526	2.0667	T_INK	9	Incongruent	żółty	yellow	zielony	green	hit	n/a
29.3865	n/a	RESPONSE	n/a	n/a	n/a	n/a	n/a	n/a	n/a	green
29.4193	0.5167	FEEDBACK	n/a	n/a	n/a	n/a	n/a	n/a	n/a	n/a
29.9359	1.0167	ITI	n/a	n/a	n/a	n/a	n/a	n/a	n/a	n/a
30.9526	0.5167	FIXCROSS	n/a	n/a	n/a	n/a	n/a	n/a	n/a	n/a
31.4693	0.7333	T_INK	10	Neutral	xxxxxxxx	xxxxxxxx	żółty	yellow	hit	n/a
32.183	n/a	RESPONSE	n/a	n/a	n/a	n/a	n/a	n/a	n/a	yellow
32.2026	0.5167	FEEDBACK	n/a	n/a	n/a	n/a	n/a	n/a	n/a	n/a
32.7193	1.0167	ITI	n/a	n/a	n/a	n/a	n/a	n/a	n/a	n/a
33.736	0.5167	FIXCROSS	n/a	n/a	n/a	n/a	n/a	n/a	n/a	n/a
34.2526	1.8334	T_INK	11	Incongruent	czerwony	red	żółty	yellow	hit	n/a
36.0661	n/a	RESPONSE	n/a	n/a	n/a	n/a	n/a	n/a	n/a	yellow
36.086	0.5167	FEEDBACK	n/a	n/a	n/a	n/a	n/a	n/a	n/a	n/a
36.6027	1.0167	ITI	n/a	n/a	n/a	n/a	n/a	n/a	n/a	n/a
37.6193	0.5167	FIXCROSS	n/a	n/a	n/a	n/a	n/a	n/a	n/a	n/a
38.136	0.9667	T_INK	12	Neutral	xxxxxxxx	xxxxxxxx	zielony	green	hit	n/a
39.0703	n/a	RESPONSE	n/a	n/a	n/a	n/a	n/a	n/a	n/a	green
39.1027	0.5167	FEEDBACK	n/a	n/a	n/a	n/a	n/a	n/a	n/a	n/a
39.6193	1.0333	ITI	n/a	n/a	n/a	n/a	n/a	n/a	n/a	n/a
43.193	n/a	RESPONSE	n/a	n/a	n/a	n/a	n/a	n/a	n/a	n/a
43.2527	1.0167	ITI	n/a	n/a	n/a	n/a	n/a	n/a	n/a	n/a
44.2694	0.5167	FIXCROSS	n/a	n/a	n/a	n/a	n/a	n/a	n/a	n/a
44.786	1.65	INK	1	Incongruent	zielony	green	czerwony	red	hit	n/a
46.4049	n/a	RESPONSE	n/a	n/a	n/a	n/a	n/a	n/a	n/a	red
46.4361	1.0167	ITI	n/a	n/a	n/a	n/a	n/a	n/a	n/a	n/a
47.4527	0.5167	FIXCROSS	n/a	n/a	n/a	n/a	n/a	n/a	n/a	n/a
47.9694	0.6333	INK	2	Neutral	xxxxxxx	xxxxxxx	czerwony	red	hit	n/a
48.5782	n/a	RESPONSE	n/a	n/a	n/a	n/a	n/a	n/a	n/a	red
48.6027	1.0167	ITI	n/a	n/a	n/a	n/a	n/a	n/a	n/a	n/a
49.6194	0.5167	FIXCROSS	n/a	n/a	n/a	n/a	n/a	n/a	n/a	n/a
50.1361	1.05	INK	3	Neutral	xxxxx	xxxxx	zielony	green	hit	n/a
51.1669	n/a	RESPONSE	n/a	n/a	n/a	n/a	n/a	n/a	n/a	green
51.1861	1.0167	ITI	n/a	n/a	n/a	n/a	n/a	n/a	n/a	n/a
52.2028	0.5167	FIXCROSS	n/a	n/a	n/a	n/a	n/a	n/a	n/a	n/a
52.7194	2.3167	INK	4	Incongruent	niebieski	blue	czerwony	red	hit	n/a
55.018	n/a	RESPONSE	n/a	n/a	n/a	n/a	n/a	n/a	n/a	red
55.0361	1.0167	ITI	n/a	n/a	n/a	n/a	n/a	n/a	n/a	n/a
56.0528	0.5167	FIXCROSS	n/a	n/a	n/a	n/a	n/a	n/a	n/a	n/a
56.5695	0.8167	INK	5	Neutral	xxxxxxxxx	xxxxxxxxx	zielony	green	hit	n/a
57.3671	n/a	RESPONSE	n/a	n/a	n/a	n/a	n/a	n/a	n/a	green
57.3861	1.0167	ITI	n/a	n/a	n/a	n/a	n/a	n/a	n/a	n/a
58.4028	0.5167	FIXCROSS	n/a	n/a	n/a	n/a	n/a	n/a	n/a	n/a
58.9195	0.8167	INK	6	Incongruent	zielony	green	niebieski	blue	hit	n/a
59.716	n/a	RESPONSE	n/a	n/a	n/a	n/a	n/a	n/a	n/a	blue
59.7362	1.0167	ITI	n/a	n/a	n/a	n/a	n/a	n/a	n/a	n/a
60.7528	0.5167	FIXCROSS	n/a	n/a	n/a	n/a	n/a	n/a	n/a	n/a
61.2695	0.7333	INK	7	Incongruent	czerwony	red	żółty	yellow	hit	n/a
61.9692	n/a	RESPONSE	n/a	n/a	n/a	n/a	n/a	n/a	n/a	yellow
62.0029	1.0167	ITI	n/a	n/a	n/a	n/a	n/a	n/a	n/a	n/a
63.0195	0.5167	FIXCROSS	n/a	n/a	n/a	n/a	n/a	n/a	n/a	n/a
63.5362	0.7333	INK	8	Neutral	xxxxxxxxx	xxxxxxxxx	czerwony	red	hit	n/a
64.2383	n/a	RESPONSE	n/a	n/a	n/a	n/a	n/a	n/a	n/a	red
64.2695	1.0167	ITI	n/a	n/a	n/a	n/a	n/a	n/a	n/a	n/a
65.2862	0.5167	FIXCROSS	n/a	n/a	n/a	n/a	n/a	n/a	n/a	n/a
65.8029	1.1333	INK	9	Incongruent	żółty	yellow	zielony	green	hit	n/a
66.9069	n/a	RESPONSE	n/a	n/a	n/a	n/a	n/a	n/a	n/a	green
66.9362	1.0167	ITI	n/a	n/a	n/a	n/a	n/a	n/a	n/a	n/a
67.9529	0.5167	FIXCROSS	n/a	n/a	n/a	n/a	n/a	n/a	n/a	n/a
68.4696	0.65	INK	10	Neutral	xxxxx	xxxxx	zielony	green	hit	n/a
69.0962	n/a	RESPONSE	n/a	n/a	n/a	n/a	n/a	n/a	n/a	green
69.1196	1.0167	ITI	n/a	n/a	n/a	n/a	n/a	n/a	n/a	n/a
70.1362	0.5167	FIXCROSS	n/a	n/a	n/a	n/a	n/a	n/a	n/a	n/a
70.6529	0.6833	INK	11	Neutral	xxxxx	xxxxx	niebieski	blue	hit	n/a
71.3174	n/a	RESPONSE	n/a	n/a	n/a	n/a	n/a	n/a	n/a	blue
71.3362	1.0167	ITI	n/a	n/a	n/a	n/a	n/a	n/a	n/a	n/a
72.3529	0.5167	FIXCROSS	n/a	n/a	n/a	n/a	n/a	n/a	n/a	n/a
72.8696	0.6667	INK	12	Incongruent	żółty	yellow	niebieski	blue	hit	n/a
73.5066	n/a	RESPONSE	n/a	n/a	n/a	n/a	n/a	n/a	n/a	blue
73.5363	1.0167	ITI	n/a	n/a	n/a	n/a	n/a	n/a	n/a	n/a
74.5529	0.5167	FIXCROSS	n/a	n/a	n/a	n/a	n/a	n/a	n/a	n/a
75.0696	0.6833	INK	13	Neutral	xxxxx	xxxxx	czerwony	red	hit	n/a
75.7277	n/a	RESPONSE	n/a	n/a	n/a	n/a	n/a	n/a	n/a	red
75.753	1.0167	ITI	n/a	n/a	n/a	n/a	n/a	n/a	n/a	n/a
76.7696	0.5167	FIXCROSS	n/a	n/a	n/a	n/a	n/a	n/a	n/a	n/a
77.2863	1.4167	INK	14	Incongruent	czerwony	red	niebieski	blue	hit	n/a
78.6841	n/a	RESPONSE	n/a	n/a	n/a	n/a	n/a	n/a	n/a	blue
78.703	1.0167	ITI	n/a	n/a	n/a	n/a	n/a	n/a	n/a	n/a
79.7196	0.5167	FIXCROSS	n/a	n/a	n/a	n/a	n/a	n/a	n/a	n/a
80.2363	0.7667	INK	15	Neutral	xxxxxxxxx	xxxxxxxxx	żółty	yellow	hit	n/a
80.9852	n/a	RESPONSE	n/a	n/a	n/a	n/a	n/a	n/a	n/a	yellow
81.003	1.0167	ITI	n/a	n/a	n/a	n/a	n/a	n/a	n/a	n/a
81.065	n/a	RESPONSE	n/a	n/a	n/a	n/a	n/a	n/a	n/a	yellow
82.0197	0.5167	FIXCROSS	n/a	n/a	n/a	n/a	n/a	n/a	n/a	n/a
82.5363	0.7167	INK	16	Incongruent	żółty	yellow	zielony	green	hit	n/a
83.2222	n/a	RESPONSE	n/a	n/a	n/a	n/a	n/a	n/a	n/a	green
83.253	1.0167	ITI	n/a	n/a	n/a	n/a	n/a	n/a	n/a	n/a
84.2697	0.5167	FIXCROSS	n/a	n/a	n/a	n/a	n/a	n/a	n/a	n/a
84.7864	1.3167	INK	17	Incongruent	niebieski	blue	żółty	yellow	hit	n/a
86.0827	n/a	RESPONSE	n/a	n/a	n/a	n/a	n/a	n/a	n/a	yellow
86.103	1.0167	ITI	n/a	n/a	n/a	n/a	n/a	n/a	n/a	n/a
87.1197	0.5167	FIXCROSS	n/a	n/a	n/a	n/a	n/a	n/a	n/a	n/a
87.6364	0.7	INK	18	Neutral	xxxxxxx	xxxxxxx	czerwony	red	hit	n/a
88.3039	n/a	RESPONSE	n/a	n/a	n/a	n/a	n/a	n/a	n/a	red
88.3364	1.0167	ITI	n/a	n/a	n/a	n/a	n/a	n/a	n/a	n/a
89.3531	0.5167	FIXCROSS	n/a	n/a	n/a	n/a	n/a	n/a	n/a	n/a
89.8697	0.75	INK	19	Incongruent	żółty	yellow	czerwony	red	hit	n/a
90.589	n/a	RESPONSE	n/a	n/a	n/a	n/a	n/a	n/a	n/a	red
90.6197	1.0167	ITI	n/a	n/a	n/a	n/a	n/a	n/a	n/a	n/a
91.6364	0.5167	FIXCROSS	n/a	n/a	n/a	n/a	n/a	n/a	n/a	n/a
92.1531	1.0167	INK	20	Incongruent	zielony	green	niebieski	blue	hit	n/a
93.1459	n/a	RESPONSE	n/a	n/a	n/a	n/a	n/a	n/a	n/a	blue
93.1697	1.0167	ITI	n/a	n/a	n/a	n/a	n/a	n/a	n/a	n/a
94.1864	0.5167	FIXCROSS	n/a	n/a	n/a	n/a	n/a	n/a	n/a	n/a
94.7031	0.4833	INK	21	Incongruent	zielony	green	żółty	yellow	hit	n/a
95.1592	n/a	RESPONSE	n/a	n/a	n/a	n/a	n/a	n/a	n/a	yellow
95.1864	1.0167	ITI	n/a	n/a	n/a	n/a	n/a	n/a	n/a	n/a
96.2031	0.5167	FIXCROSS	n/a	n/a	n/a	n/a	n/a	n/a	n/a	n/a
96.7198	0.6667	INK	22	Neutral	xxxxxxx	xxxxxxx	niebieski	blue	hit	n/a
97.3645	n/a	RESPONSE	n/a	n/a	n/a	n/a	n/a	n/a	n/a	blue
97.3864	1.0167	ITI	n/a	n/a	n/a	n/a	n/a	n/a	n/a	n/a
98.4031	0.5167	FIXCROSS	n/a	n/a	n/a	n/a	n/a	n/a	n/a	n/a
98.9198	0.7333	INK	23	Incongruent	zielony	green	niebieski	blue	hit	n/a
99.6336	n/a	RESPONSE	n/a	n/a	n/a	n/a	n/a	n/a	n/a	blue
99.6531	1.0167	ITI	n/a	n/a	n/a	n/a	n/a	n/a	n/a	n/a
100.6698	0.5167	FIXCROSS	n/a	n/a	n/a	n/a	n/a	n/a	n/a	n/a
101.1865	0.6167	INK	24	Neutral	xxxxxxxx	xxxxxxxx	niebieski	blue	hit	n/a
101.7748	n/a	RESPONSE	n/a	n/a	n/a	n/a	n/a	n/a	n/a	blue
101.8031	1.0167	ITI	n/a	n/a	n/a	n/a	n/a	n/a	n/a	n/a
102.8198	0.5167	FIXCROSS	n/a	n/a	n/a	n/a	n/a	n/a	n/a	n/a
103.3365	0.6667	INK	25	Neutral	xxxxxxxxx	xxxxxxxxx	czerwony	red	hit	n/a
103.9799	n/a	RESPONSE	n/a	n/a	n/a	n/a	n/a	n/a	n/a	red
104.0032	1.0167	ITI	n/a	n/a	n/a	n/a	n/a	n/a	n/a	n/a
105.0198	0.5167	FIXCROSS	n/a	n/a	n/a	n/a	n/a	n/a	n/a	n/a
105.5365	0.8833	INK	26	Neutral	xxxxxxx	xxxxxxx	żółty	yellow	hit	n/a
106.3927	n/a	RESPONSE	n/a	n/a	n/a	n/a	n/a	n/a	n/a	yellow
106.4198	1.0167	ITI	n/a	n/a	n/a	n/a	n/a	n/a	n/a	n/a
107.4365	0.5167	FIXCROSS	n/a	n/a	n/a	n/a	n/a	n/a	n/a	n/a
107.9532	0.6833	INK	27	Incongruent	zielony	green	czerwony	red	hit	n/a
108.6139	n/a	RESPONSE	n/a	n/a	n/a	n/a	n/a	n/a	n/a	red
108.6365	1.0167	ITI	n/a	n/a	n/a	n/a	n/a	n/a	n/a	n/a
109.6532	0.5167	FIXCROSS	n/a	n/a	n/a	n/a	n/a	n/a	n/a	n/a
110.1699	0.6333	INK	28	Incongruent	żółty	yellow	czerwony	red	hit	n/a
110.7712	n/a	RESPONSE	n/a	n/a	n/a	n/a	n/a	n/a	n/a	red
110.8032	1.0167	ITI	n/a	n/a	n/a	n/a	n/a	n/a	n/a	n/a
111.8199	0.5167	FIXCROSS	n/a	n/a	n/a	n/a	n/a	n/a	n/a	n/a
112.3366	0.6	INK	29	Neutral	xxxxxxx	xxxxxxx	czerwony	red	hit	n/a
112.9125	n/a	RESPONSE	n/a	n/a	n/a	n/a	n/a	n/a	n/a	red
112.9366	1.0167	ITI	n/a	n/a	n/a	n/a	n/a	n/a	n/a	n/a
113.9532	0.5167	FIXCROSS	n/a	n/a	n/a	n/a	n/a	n/a	n/a	n/a
114.4699	0.6167	INK	30	Neutral	xxxxxxxx	xxxxxxxx	zielony	green	hit	n/a
115.0538	n/a	RESPONSE	n/a	n/a	n/a	n/a	n/a	n/a	n/a	green
115.0866	1.0167	ITI	n/a	n/a	n/a	n/a	n/a	n/a	n/a	n/a
116.1033	0.5167	FIXCROSS	n/a	n/a	n/a	n/a	n/a	n/a	n/a	n/a
116.6199	0.8333	INK	31	Neutral	xxxxx	xxxxx	czerwony	red	hit	n/a
117.4347	n/a	RESPONSE	n/a	n/a	n/a	n/a	n/a	n/a	n/a	red
117.4533	1.0167	ITI	n/a	n/a	n/a	n/a	n/a	n/a	n/a	n/a
118.4699	0.5167	FIXCROSS	n/a	n/a	n/a	n/a	n/a	n/a	n/a	n/a
118.9866	0.75	INK	32	Neutral	xxxxxxxxx	xxxxxxxxx	czerwony	red	hit	n/a
119.7038	n/a	RESPONSE	n/a	n/a	n/a	n/a	n/a	n/a	n/a	red
119.7366	1.0167	ITI	n/a	n/a	n/a	n/a	n/a	n/a	n/a	n/a
120.7533	0.5167	FIXCROSS	n/a	n/a	n/a	n/a	n/a	n/a	n/a	n/a
121.27	0.6	INK	33	Incongruent	zielony	green	żółty	yellow	hit	n/a
121.8451	n/a	RESPONSE	n/a	n/a	n/a	n/a	n/a	n/a	n/a	yellow
121.87	1.0167	ITI	n/a	n/a	n/a	n/a	n/a	n/a	n/a	n/a
122.8866	0.5167	FIXCROSS	n/a	n/a	n/a	n/a	n/a	n/a	n/a	n/a
123.4033	0.7333	INK	34	Neutral	xxxxx	xxxxx	niebieski	blue	hit	n/a
124.1143	n/a	RESPONSE	n/a	n/a	n/a	n/a	n/a	n/a	n/a	blue
124.1366	1.0167	ITI	n/a	n/a	n/a	n/a	n/a	n/a	n/a	n/a
125.1533	0.5167	FIXCROSS	n/a	n/a	n/a	n/a	n/a	n/a	n/a	n/a
125.67	0.6833	INK	35	Neutral	xxxxxxxx	xxxxxxxx	zielony	green	hit	n/a
126.3195	n/a	RESPONSE	n/a	n/a	n/a	n/a	n/a	n/a	n/a	green
126.3533	1.0167	ITI	n/a	n/a	n/a	n/a	n/a	n/a	n/a	n/a
127.37	0.5167	FIXCROSS	n/a	n/a	n/a	n/a	n/a	n/a	n/a	n/a
127.8867	0.6667	INK	36	Neutral	xxxxxxxx	xxxxxxxx	żółty	yellow	hit	n/a
128.5247	n/a	RESPONSE	n/a	n/a	n/a	n/a	n/a	n/a	n/a	yellow
128.5534	1.0167	ITI	n/a	n/a	n/a	n/a	n/a	n/a	n/a	n/a
129.57	0.5167	FIXCROSS	n/a	n/a	n/a	n/a	n/a	n/a	n/a	n/a
130.0867	0.6	INK	37	Incongruent	czerwony	red	niebieski	blue	hit	n/a
130.6659	n/a	RESPONSE	n/a	n/a	n/a	n/a	n/a	n/a	n/a	blue
130.6867	1.0167	ITI	n/a	n/a	n/a	n/a	n/a	n/a	n/a	n/a
131.7034	0.5167	FIXCROSS	n/a	n/a	n/a	n/a	n/a	n/a	n/a	n/a
132.22	0.75	INK	38	Neutral	xxxxxxx	xxxxxxx	niebieski	blue	hit	n/a
132.951	n/a	RESPONSE	n/a	n/a	n/a	n/a	n/a	n/a	n/a	blue
132.9701	1.0167	ITI	n/a	n/a	n/a	n/a	n/a	n/a	n/a	n/a
133.9867	0.5167	FIXCROSS	n/a	n/a	n/a	n/a	n/a	n/a	n/a	n/a
134.5034	0.6667	INK	39	Neutral	xxxxxxxxx	xxxxxxxxx	zielony	green	incorrect	n/a
135.1404	n/a	RESPONSE	n/a	n/a	n/a	n/a	n/a	n/a	n/a	yellow
135.1701	1.0167	ITI	n/a	n/a	n/a	n/a	n/a	n/a	n/a	n/a
136.1867	0.5167	FIXCROSS	n/a	n/a	n/a	n/a	n/a	n/a	n/a	n/a
136.7034	1.8833	INK	40	Incongruent	żółty	yellow	niebieski	blue	hit	n/a
138.56	n/a	RESPONSE	n/a	n/a	n/a	n/a	n/a	n/a	n/a	blue
138.5868	1.0167	ITI	n/a	n/a	n/a	n/a	n/a	n/a	n/a	n/a
139.6034	0.5167	FIXCROSS	n/a	n/a	n/a	n/a	n/a	n/a	n/a	n/a
140.1201	0.7167	INK	41	Incongruent	czerwony	red	żółty	yellow	hit	n/a
140.8131	n/a	RESPONSE	n/a	n/a	n/a	n/a	n/a	n/a	n/a	yellow
140.8368	1.0167	ITI	n/a	n/a	n/a	n/a	n/a	n/a	n/a	n/a
141.8535	0.5167	FIXCROSS	n/a	n/a	n/a	n/a	n/a	n/a	n/a	n/a
142.3701	1.7833	INK	42	Neutral	xxxxx	xxxxx	zielony	green	hit	n/a
144.1209	n/a	RESPONSE	n/a	n/a	n/a	n/a	n/a	n/a	n/a	green
144.1535	1.0167	ITI	n/a	n/a	n/a	n/a	n/a	n/a	n/a	n/a
145.1701	0.5167	FIXCROSS	n/a	n/a	n/a	n/a	n/a	n/a	n/a	n/a
145.6868	1.05	INK	43	Incongruent	niebieski	blue	czerwony	red	incorrect	n/a
146.7097	n/a	RESPONSE	n/a	n/a	n/a	n/a	n/a	n/a	n/a	blue
146.7368	1.0167	ITI	n/a	n/a	n/a	n/a	n/a	n/a	n/a	n/a
147.7535	0.5167	FIXCROSS	n/a	n/a	n/a	n/a	n/a	n/a	n/a	n/a
148.2702	0.9667	INK	44	Neutral	xxxxxxxx	xxxxxxxx	niebieski	blue	hit	n/a
149.2186	n/a	RESPONSE	n/a	n/a	n/a	n/a	n/a	n/a	n/a	blue
149.2368	1.0167	ITI	n/a	n/a	n/a	n/a	n/a	n/a	n/a	n/a
150.2535	0.5167	FIXCROSS	n/a	n/a	n/a	n/a	n/a	n/a	n/a	n/a
150.7702	0.8333	INK	45	Neutral	xxxxxxx	xxxxxxx	niebieski	blue	hit	n/a
151.5835	n/a	RESPONSE	n/a	n/a	n/a	n/a	n/a	n/a	n/a	blue
151.6035	1.0167	ITI	n/a	n/a	n/a	n/a	n/a	n/a	n/a	n/a
152.6202	0.5167	FIXCROSS	n/a	n/a	n/a	n/a	n/a	n/a	n/a	n/a
153.1369	1.1167	INK	46	Incongruent	czerwony	red	zielony	green	hit	n/a
154.2203	n/a	RESPONSE	n/a	n/a	n/a	n/a	n/a	n/a	n/a	green
154.2535	1.0167	ITI	n/a	n/a	n/a	n/a	n/a	n/a	n/a	n/a
155.2702	0.5167	FIXCROSS	n/a	n/a	n/a	n/a	n/a	n/a	n/a	n/a
155.7869	0.6	INK	47	Incongruent	czerwony	red	zielony	green	hit	n/a
156.3615	n/a	RESPONSE	n/a	n/a	n/a	n/a	n/a	n/a	n/a	green
156.3869	1.0167	ITI	n/a	n/a	n/a	n/a	n/a	n/a	n/a	n/a
157.4036	0.5167	FIXCROSS	n/a	n/a	n/a	n/a	n/a	n/a	n/a	n/a
157.9202	0.6333	INK	48	Incongruent	czerwony	red	żółty	yellow	hit	n/a
158.5347	n/a	RESPONSE	n/a	n/a	n/a	n/a	n/a	n/a	n/a	yellow
158.5536	1.0167	ITI	n/a	n/a	n/a	n/a	n/a	n/a	n/a	n/a
159.5702	0.5167	FIXCROSS	n/a	n/a	n/a	n/a	n/a	n/a	n/a	n/a
160.0869	0.5	INK	49	Incongruent	żółty	yellow	czerwony	red	hit	n/a
160.5642	n/a	RESPONSE	n/a	n/a	n/a	n/a	n/a	n/a	n/a	red
160.5869	1.0167	ITI	n/a	n/a	n/a	n/a	n/a	n/a	n/a	n/a
161.6036	0.5167	FIXCROSS	n/a	n/a	n/a	n/a	n/a	n/a	n/a	n/a
162.1203	1.2	INK	50	Incongruent	niebieski	blue	żółty	yellow	hit	n/a
163.2968	n/a	RESPONSE	n/a	n/a	n/a	n/a	n/a	n/a	n/a	yellow
163.3203	1.0167	ITI	n/a	n/a	n/a	n/a	n/a	n/a	n/a	n/a
164.337	0.5167	FIXCROSS	n/a	n/a	n/a	n/a	n/a	n/a	n/a	n/a
164.8536	0.5167	INK	51	Neutral	xxxxxxxxx	xxxxxxxxx	żółty	yellow	hit	n/a
165.3423	n/a	RESPONSE	n/a	n/a	n/a	n/a	n/a	n/a	n/a	yellow
165.3703	1.0167	ITI	n/a	n/a	n/a	n/a	n/a	n/a	n/a	n/a
166.387	0.5167	FIXCROSS	n/a	n/a	n/a	n/a	n/a	n/a	n/a	n/a
166.9036	0.8667	INK	52	Neutral	xxxxxxxx	xxxxxxxx	niebieski	blue	incorrect	n/a
167.7392	n/a	RESPONSE	n/a	n/a	n/a	n/a	n/a	n/a	n/a	red
167.7703	1.0167	ITI	n/a	n/a	n/a	n/a	n/a	n/a	n/a	n/a
168.787	0.5167	FIXCROSS	n/a	n/a	n/a	n/a	n/a	n/a	n/a	n/a
169.3037	1.5667	INK	53	Incongruent	żółty	yellow	zielony	green	hit	n/a
170.8393	n/a	RESPONSE	n/a	n/a	n/a	n/a	n/a	n/a	n/a	green
170.8703	1.0167	ITI	n/a	n/a	n/a	n/a	n/a	n/a	n/a	n/a
171.887	0.5167	FIXCROSS	n/a	n/a	n/a	n/a	n/a	n/a	n/a	n/a
172.4037	0.7667	INK	54	Neutral	xxxxxxxx	xxxxxxxx	zielony	green	hit	n/a
173.1404	n/a	RESPONSE	n/a	n/a	n/a	n/a	n/a	n/a	n/a	green
173.1704	1.0167	ITI	n/a	n/a	n/a	n/a	n/a	n/a	n/a	n/a
174.187	0.5167	FIXCROSS	n/a	n/a	n/a	n/a	n/a	n/a	n/a	n/a
174.7037	0.7	INK	55	Neutral	xxxxxxx	xxxxxxx	żółty	yellow	hit	n/a
175.3776	n/a	RESPONSE	n/a	n/a	n/a	n/a	n/a	n/a	n/a	yellow
175.4037	1.0167	ITI	n/a	n/a	n/a	n/a	n/a	n/a	n/a	n/a
176.4204	0.5167	FIXCROSS	n/a	n/a	n/a	n/a	n/a	n/a	n/a	n/a
176.937	0.6167	INK	56	Neutral	xxxxxxx	xxxxxxx	żółty	yellow	hit	n/a
177.5349	n/a	RESPONSE	n/a	n/a	n/a	n/a	n/a	n/a	n/a	yellow
177.5537	1.0167	ITI	n/a	n/a	n/a	n/a	n/a	n/a	n/a	n/a
178.5704	0.5167	FIXCROSS	n/a	n/a	n/a	n/a	n/a	n/a	n/a	n/a
179.0871	0.85	INK	57	Incongruent	czerwony	red	niebieski	blue	hit	n/a
179.916	n/a	RESPONSE	n/a	n/a	n/a	n/a	n/a	n/a	n/a	blue
179.9371	1.0167	ITI	n/a	n/a	n/a	n/a	n/a	n/a	n/a	n/a
180.9537	0.5167	FIXCROSS	n/a	n/a	n/a	n/a	n/a	n/a	n/a	n/a
181.4704	0.6667	INK	58	Neutral	xxxxxxxx	xxxxxxxx	żółty	yellow	hit	n/a
182.1052	n/a	RESPONSE	n/a	n/a	n/a	n/a	n/a	n/a	n/a	yellow
182.1371	1.0167	ITI	n/a	n/a	n/a	n/a	n/a	n/a	n/a	n/a
183.1538	0.5167	FIXCROSS	n/a	n/a	n/a	n/a	n/a	n/a	n/a	n/a
183.6704	0.6833	INK	59	Incongruent	zielony	green	żółty	yellow	hit	n/a
184.3264	n/a	RESPONSE	n/a	n/a	n/a	n/a	n/a	n/a	n/a	yellow
184.3538	1.0167	ITI	n/a	n/a	n/a	n/a	n/a	n/a	n/a	n/a
185.3704	0.5167	FIXCROSS	n/a	n/a	n/a	n/a	n/a	n/a	n/a	n/a
185.8871	0.9167	INK	60	Incongruent	niebieski	blue	zielony	green	hit	n/a
186.7714	n/a	RESPONSE	n/a	n/a	n/a	n/a	n/a	n/a	n/a	green
186.8038	1.0167	ITI	n/a	n/a	n/a	n/a	n/a	n/a	n/a	n/a
187.8205	0.5167	FIXCROSS	n/a	n/a	n/a	n/a	n/a	n/a	n/a	n/a
188.3371	0.5167	INK	61	Neutral	xxxxxxxxx	xxxxxxxxx	zielony	green	hit	n/a
188.8327	n/a	RESPONSE	n/a	n/a	n/a	n/a	n/a	n/a	n/a	green
188.8538	1.0167	ITI	n/a	n/a	n/a	n/a	n/a	n/a	n/a	n/a
189.8705	0.5167	FIXCROSS	n/a	n/a	n/a	n/a	n/a	n/a	n/a	n/a
190.3871	0.7333	INK	62	Incongruent	żółty	yellow	niebieski	blue	hit	n/a
191.1018	n/a	RESPONSE	n/a	n/a	n/a	n/a	n/a	n/a	n/a	blue
191.1205	1.0167	ITI	n/a	n/a	n/a	n/a	n/a	n/a	n/a	n/a
192.1372	0.5167	FIXCROSS	n/a	n/a	n/a	n/a	n/a	n/a	n/a	n/a
192.6538	0.55	INK	63	Neutral	xxxxxxxxx	xxxxxxxxx	żółty	yellow	hit	n/a
193.1793	n/a	RESPONSE	n/a	n/a	n/a	n/a	n/a	n/a	n/a	yellow
193.2038	1.0167	ITI	n/a	n/a	n/a	n/a	n/a	n/a	n/a	n/a
194.2205	0.5167	FIXCROSS	n/a	n/a	n/a	n/a	n/a	n/a	n/a	n/a
194.7372	0.4333	INK	64	Neutral	xxxxxxxx	xxxxxxxx	żółty	yellow	hit	n/a
195.1449	n/a	RESPONSE	n/a	n/a	n/a	n/a	n/a	n/a	n/a	yellow
195.1705	1.0167	ITI	n/a	n/a	n/a	n/a	n/a	n/a	n/a	n/a
196.1872	0.5167	FIXCROSS	n/a	n/a	n/a	n/a	n/a	n/a	n/a	n/a
196.7039	0.6	INK	65	Neutral	xxxxx	xxxxx	czerwony	red	hit	n/a
197.2701	n/a	RESPONSE	n/a	n/a	n/a	n/a	n/a	n/a	n/a	red
197.3039	1.0167	ITI	n/a	n/a	n/a	n/a	n/a	n/a	n/a	n/a
198.3205	0.5167	FIXCROSS	n/a	n/a	n/a	n/a	n/a	n/a	n/a	n/a
198.8372	0.5167	INK	66	Neutral	xxxxx	xxxxx	niebieski	blue	hit	n/a
199.3316	n/a	RESPONSE	n/a	n/a	n/a	n/a	n/a	n/a	n/a	blue
199.3539	1.0167	ITI	n/a	n/a	n/a	n/a	n/a	n/a	n/a	n/a
200.3705	0.5167	FIXCROSS	n/a	n/a	n/a	n/a	n/a	n/a	n/a	n/a
200.8872	0.6167	INK	67	Incongruent	niebieski	blue	zielony	green	hit	n/a
201.473	n/a	RESPONSE	n/a	n/a	n/a	n/a	n/a	n/a	n/a	green
201.5039	1.0167	ITI	n/a	n/a	n/a	n/a	n/a	n/a	n/a	n/a
202.5206	0.5167	FIXCROSS	n/a	n/a	n/a	n/a	n/a	n/a	n/a	n/a
203.0372	1.2167	INK	68	Incongruent	niebieski	blue	czerwony	red	hit	n/a
204.2216	n/a	RESPONSE	n/a	n/a	n/a	n/a	n/a	n/a	n/a	red
204.2539	1.0167	ITI	n/a	n/a	n/a	n/a	n/a	n/a	n/a	n/a
205.2706	0.5167	FIXCROSS	n/a	n/a	n/a	n/a	n/a	n/a	n/a	n/a
205.7873	0.9333	INK	69	Incongruent	niebieski	blue	zielony	green	hit	n/a
206.6984	n/a	RESPONSE	n/a	n/a	n/a	n/a	n/a	n/a	n/a	green
206.7206	1.0167	ITI	n/a	n/a	n/a	n/a	n/a	n/a	n/a	n/a
207.7373	0.5167	FIXCROSS	n/a	n/a	n/a	n/a	n/a	n/a	n/a	n/a
208.2539	1.0167	INK	70	Incongruent	zielony	green	czerwony	red	hit	n/a
209.2392	n/a	RESPONSE	n/a	n/a	n/a	n/a	n/a	n/a	n/a	red
209.2706	1.0167	ITI	n/a	n/a	n/a	n/a	n/a	n/a	n/a	n/a
210.2873	0.5167	FIXCROSS	n/a	n/a	n/a	n/a	n/a	n/a	n/a	n/a
210.804	0.7667	INK	71	Incongruent	niebieski	blue	żółty	yellow	hit	n/a
211.5403	n/a	RESPONSE	n/a	n/a	n/a	n/a	n/a	n/a	n/a	yellow
211.5706	1.0167	ITI	n/a	n/a	n/a	n/a	n/a	n/a	n/a	n/a
212.5873	0.5167	FIXCROSS	n/a	n/a	n/a	n/a	n/a	n/a	n/a	n/a
213.104	0.65	INK	72	Incongruent	czerwony	red	zielony	green	hit	n/a
213.7296	n/a	RESPONSE	n/a	n/a	n/a	n/a	n/a	n/a	n/a	green
213.754	1.0833	ITI	n/a	n/a	n/a	n/a	n/a	n/a	n/a	n/a
258.5215	n/a	RESPONSE	n/a	n/a	n/a	n/a	n/a	n/a	n/a	n/a
258.5876	1.0167	ITI	n/a	n/a	n/a	n/a	n/a	n/a	n/a	n/a
259.6043	0.5167	FIXCROSS	n/a	n/a	n/a	n/a	n/a	n/a	n/a	n/a
260.121	1.55	T_COLOR_NAME	1	Neutral	żółty	yellow	Neutral	Neutral	hit	n/a
261.6376	n/a	RESPONSE	n/a	n/a	n/a	n/a	n/a	n/a	n/a	yellow
261.671	0.5167	FEEDBACK	n/a	n/a	n/a	n/a	n/a	n/a	n/a	n/a
262.1877	1.0167	ITI	n/a	n/a	n/a	n/a	n/a	n/a	n/a	n/a
263.2043	0.5167	FIXCROSS	n/a	n/a	n/a	n/a	n/a	n/a	n/a	n/a
263.721	1.2667	T_COLOR_NAME	2	Incongruent	zielony	green	czerwony	red	hit	n/a
264.9613	n/a	RESPONSE	n/a	n/a	n/a	n/a	n/a	n/a	n/a	green
264.9877	0.5167	FEEDBACK	n/a	n/a	n/a	n/a	n/a	n/a	n/a	n/a
265.5044	1.0167	ITI	n/a	n/a	n/a	n/a	n/a	n/a	n/a	n/a
266.521	0.5167	FIXCROSS	n/a	n/a	n/a	n/a	n/a	n/a	n/a	n/a
267.0377	1.05	T_COLOR_NAME	3	Incongruent	żółty	yellow	zielony	green	hit	n/a
268.0615	n/a	RESPONSE	n/a	n/a	n/a	n/a	n/a	n/a	n/a	yellow
268.0877	0.5167	FEEDBACK	n/a	n/a	n/a	n/a	n/a	n/a	n/a	n/a
268.6044	1.0167	ITI	n/a	n/a	n/a	n/a	n/a	n/a	n/a	n/a
269.6211	0.5167	FIXCROSS	n/a	n/a	n/a	n/a	n/a	n/a	n/a	n/a
270.1377	1.15	T_COLOR_NAME	4	Incongruent	czerwony	red	niebieski	blue	hit	n/a
271.2575	n/a	RESPONSE	n/a	n/a	n/a	n/a	n/a	n/a	n/a	red
271.2877	0.5167	FEEDBACK	n/a	n/a	n/a	n/a	n/a	n/a	n/a	n/a
271.8044	1.0167	ITI	n/a	n/a	n/a	n/a	n/a	n/a	n/a	n/a
272.8211	0.5167	FIXCROSS	n/a	n/a	n/a	n/a	n/a	n/a	n/a	n/a
273.3377	1.0167	T_COLOR_NAME	5	Neutral	niebieski	blue	Neutral	Neutral	hit	n/a
274.3257	n/a	RESPONSE	n/a	n/a	n/a	n/a	n/a	n/a	n/a	blue
274.3544	0.5167	FEEDBACK	n/a	n/a	n/a	n/a	n/a	n/a	n/a	n/a
274.8711	1.0167	ITI	n/a	n/a	n/a	n/a	n/a	n/a	n/a	n/a
275.8878	0.5167	FIXCROSS	n/a	n/a	n/a	n/a	n/a	n/a	n/a	n/a
276.4044	0.6	T_COLOR_NAME	6	Neutral	niebieski	blue	Neutral	Neutral	hit	n/a
276.9783	n/a	RESPONSE	n/a	n/a	n/a	n/a	n/a	n/a	n/a	blue
277.0045	0.5167	FEEDBACK	n/a	n/a	n/a	n/a	n/a	n/a	n/a	n/a
277.5211	1.0167	ITI	n/a	n/a	n/a	n/a	n/a	n/a	n/a	n/a
278.5378	0.5167	FIXCROSS	n/a	n/a	n/a	n/a	n/a	n/a	n/a	n/a
279.0545	0.8167	T_COLOR_NAME	7	Neutral	czerwony	red	Neutral	Neutral	hit	n/a
279.8388	n/a	RESPONSE	n/a	n/a	n/a	n/a	n/a	n/a	n/a	red
279.8711	0.5167	FEEDBACK	n/a	n/a	n/a	n/a	n/a	n/a	n/a	n/a
280.3878	1.0167	ITI	n/a	n/a	n/a	n/a	n/a	n/a	n/a	n/a
281.4045	0.5167	FIXCROSS	n/a	n/a	n/a	n/a	n/a	n/a	n/a	n/a
281.9211	0.6833	T_COLOR_NAME	8	Neutral	czerwony	red	Neutral	Neutral	hit	n/a
282.5714	n/a	RESPONSE	n/a	n/a	n/a	n/a	n/a	n/a	n/a	red
282.6045	0.5167	FEEDBACK	n/a	n/a	n/a	n/a	n/a	n/a	n/a	n/a
283.1212	1.0167	ITI	n/a	n/a	n/a	n/a	n/a	n/a	n/a	n/a
284.1378	0.5167	FIXCROSS	n/a	n/a	n/a	n/a	n/a	n/a	n/a	n/a
284.6545	0.9167	T_COLOR_NAME	9	Neutral	czerwony	red	Neutral	Neutral	hit	n/a
285.5436	n/a	RESPONSE	n/a	n/a	n/a	n/a	n/a	n/a	n/a	red
285.5712	0.5167	FEEDBACK	n/a	n/a	n/a	n/a	n/a	n/a	n/a	n/a
286.0878	1.0167	ITI	n/a	n/a	n/a	n/a	n/a	n/a	n/a	n/a
287.1045	0.5167	FIXCROSS	n/a	n/a	n/a	n/a	n/a	n/a	n/a	n/a
287.6212	1.6833	T_COLOR_NAME	10	Incongruent	zielony	green	niebieski	blue	hit	n/a
289.2829	n/a	RESPONSE	n/a	n/a	n/a	n/a	n/a	n/a	n/a	green
289.3045	0.5167	FEEDBACK	n/a	n/a	n/a	n/a	n/a	n/a	n/a	n/a
289.8212	1.0167	ITI	n/a	n/a	n/a	n/a	n/a	n/a	n/a	n/a
290.8379	0.5167	FIXCROSS	n/a	n/a	n/a	n/a	n/a	n/a	n/a	n/a
291.3545	1.15	T_COLOR_NAME	11	Incongruent	czerwony	red	żółty	yellow	hit	n/a
292.479	n/a	RESPONSE	n/a	n/a	n/a	n/a	n/a	n/a	n/a	red
292.5046	0.5167	FEEDBACK	n/a	n/a	n/a	n/a	n/a	n/a	n/a	n/a
293.0212	1.0167	ITI	n/a	n/a	n/a	n/a	n/a	n/a	n/a	n/a
294.0379	0.5167	FIXCROSS	n/a	n/a	n/a	n/a	n/a	n/a	n/a	n/a
294.5546	0.9333	T_COLOR_NAME	12	Neutral	żółty	yellow	Neutral	Neutral	hit	n/a
295.4672	n/a	RESPONSE	n/a	n/a	n/a	n/a	n/a	n/a	n/a	yellow
295.4879	0.5167	FEEDBACK	n/a	n/a	n/a	n/a	n/a	n/a	n/a	n/a
296.0046	1.0333	ITI	n/a	n/a	n/a	n/a	n/a	n/a	n/a	n/a
299.0308	n/a	RESPONSE	n/a	n/a	n/a	n/a	n/a	n/a	n/a	n/a
299.0879	1.0167	ITI	n/a	n/a	n/a	n/a	n/a	n/a	n/a	n/a
300.1046	0.5167	FIXCROSS	n/a	n/a	n/a	n/a	n/a	n/a	n/a	n/a
300.6213	1.1	COLOR_NAME	1	Neutral	zielony	green	Neutral	Neutral	hit	n/a
301.6995	n/a	RESPONSE	n/a	n/a	n/a	n/a	n/a	n/a	n/a	green
301.7213	1.0167	ITI	n/a	n/a	n/a	n/a	n/a	n/a	n/a	n/a
302.738	0.5167	FIXCROSS	n/a	n/a	n/a	n/a	n/a	n/a	n/a	n/a
303.2546	0.75	COLOR_NAME	2	Incongruent	żółty	yellow	niebieski	blue	hit	n/a
303.9846	n/a	RESPONSE	n/a	n/a	n/a	n/a	n/a	n/a	n/a	yellow
304.0046	1.0167	ITI	n/a	n/a	n/a	n/a	n/a	n/a	n/a	n/a
305.0213	0.5167	FIXCROSS	n/a	n/a	n/a	n/a	n/a	n/a	n/a	n/a
305.538	0.6333	COLOR_NAME	3	Neutral	żółty	yellow	Neutral	Neutral	hit	n/a
306.142	n/a	RESPONSE	n/a	n/a	n/a	n/a	n/a	n/a	n/a	yellow
306.1713	1.0167	ITI	n/a	n/a	n/a	n/a	n/a	n/a	n/a	n/a
307.188	0.5167	FIXCROSS	n/a	n/a	n/a	n/a	n/a	n/a	n/a	n/a
307.7047	0.4833	COLOR_NAME	4	Incongruent	żółty	yellow	zielony	green	hit	n/a
308.1554	n/a	RESPONSE	n/a	n/a	n/a	n/a	n/a	n/a	n/a	yellow
308.188	1.0167	ITI	n/a	n/a	n/a	n/a	n/a	n/a	n/a	n/a
309.2047	0.5167	FIXCROSS	n/a	n/a	n/a	n/a	n/a	n/a	n/a	n/a
309.7214	0.7833	COLOR_NAME	5	Neutral	czerwony	red	Neutral	Neutral	hit	n/a
310.4725	n/a	RESPONSE	n/a	n/a	n/a	n/a	n/a	n/a	n/a	red
310.5047	1.0167	ITI	n/a	n/a	n/a	n/a	n/a	n/a	n/a	n/a
311.5214	0.5166	FIXCROSS	n/a	n/a	n/a	n/a	n/a	n/a	n/a	n/a
312.038	1.3334	COLOR_NAME	6	Neutral	zielony	green	Neutral	Neutral	hit	n/a
313.3489	n/a	RESPONSE	n/a	n/a	n/a	n/a	n/a	n/a	n/a	green
313.3714	1.0167	ITI	n/a	n/a	n/a	n/a	n/a	n/a	n/a	n/a
314.388	0.5167	FIXCROSS	n/a	n/a	n/a	n/a	n/a	n/a	n/a	n/a
314.9047	1.1834	COLOR_NAME	7	Incongruent	czerwony	red	zielony	green	hit	n/a
316.0655	n/a	RESPONSE	n/a	n/a	n/a	n/a	n/a	n/a	n/a	red
316.0881	1.0167	ITI	n/a	n/a	n/a	n/a	n/a	n/a	n/a	n/a
317.1047	0.5167	FIXCROSS	n/a	n/a	n/a	n/a	n/a	n/a	n/a	n/a
317.6214	0.7167	COLOR_NAME	8	Neutral	żółty	yellow	Neutral	Neutral	hit	n/a
318.3187	n/a	RESPONSE	n/a	n/a	n/a	n/a	n/a	n/a	n/a	yellow
318.3381	1.0167	ITI	n/a	n/a	n/a	n/a	n/a	n/a	n/a	n/a
319.3548	0.5167	FIXCROSS	n/a	n/a	n/a	n/a	n/a	n/a	n/a	n/a
319.8714	0.9	COLOR_NAME	9	Incongruent	niebieski	blue	czerwony	red	hit	n/a
320.7477	n/a	RESPONSE	n/a	n/a	n/a	n/a	n/a	n/a	n/a	blue
320.7714	1.0167	ITI	n/a	n/a	n/a	n/a	n/a	n/a	n/a	n/a
321.7881	0.5167	FIXCROSS	n/a	n/a	n/a	n/a	n/a	n/a	n/a	n/a
322.3048	0.8	COLOR_NAME	10	Incongruent	zielony	green	niebieski	blue	hit	n/a
323.0808	n/a	RESPONSE	n/a	n/a	n/a	n/a	n/a	n/a	n/a	green
323.1048	1.0167	ITI	n/a	n/a	n/a	n/a	n/a	n/a	n/a	n/a
324.1215	0.5167	FIXCROSS	n/a	n/a	n/a	n/a	n/a	n/a	n/a	n/a
324.6381	0.8167	COLOR_NAME	11	Incongruent	żółty	yellow	niebieski	blue	hit	n/a
325.4299	n/a	RESPONSE	n/a	n/a	n/a	n/a	n/a	n/a	n/a	yellow
325.4548	1.0167	ITI	n/a	n/a	n/a	n/a	n/a	n/a	n/a	n/a
326.4715	0.5167	FIXCROSS	n/a	n/a	n/a	n/a	n/a	n/a	n/a	n/a
326.9881	0.9167	COLOR_NAME	12	Incongruent	zielony	green	żółty	yellow	hit	n/a
327.8748	n/a	RESPONSE	n/a	n/a	n/a	n/a	n/a	n/a	n/a	green
327.9048	1.0167	ITI	n/a	n/a	n/a	n/a	n/a	n/a	n/a	n/a
328.9215	0.5167	FIXCROSS	n/a	n/a	n/a	n/a	n/a	n/a	n/a	n/a
329.4382	0.85	COLOR_NAME	13	Incongruent	czerwony	red	niebieski	blue	hit	n/a
330.2558	n/a	RESPONSE	n/a	n/a	n/a	n/a	n/a	n/a	n/a	red
330.2882	1.0167	ITI	n/a	n/a	n/a	n/a	n/a	n/a	n/a	n/a
331.3048	0.5167	FIXCROSS	n/a	n/a	n/a	n/a	n/a	n/a	n/a	n/a
331.8215	0.7333	COLOR_NAME	14	Incongruent	czerwony	red	żółty	yellow	hit	n/a
332.525	n/a	RESPONSE	n/a	n/a	n/a	n/a	n/a	n/a	n/a	red
332.5549	1.0167	ITI	n/a	n/a	n/a	n/a	n/a	n/a	n/a	n/a
333.5715	0.5167	FIXCROSS	n/a	n/a	n/a	n/a	n/a	n/a	n/a	n/a
334.0882	0.8833	COLOR_NAME	15	Incongruent	niebieski	blue	zielony	green	hit	n/a
334.938	n/a	RESPONSE	n/a	n/a	n/a	n/a	n/a	n/a	n/a	blue
334.9715	1.0167	ITI	n/a	n/a	n/a	n/a	n/a	n/a	n/a	n/a
335.9882	0.5167	FIXCROSS	n/a	n/a	n/a	n/a	n/a	n/a	n/a	n/a
336.5049	1.3334	COLOR_NAME	16	Incongruent	zielony	green	żółty	yellow	hit	n/a
337.8144	n/a	RESPONSE	n/a	n/a	n/a	n/a	n/a	n/a	n/a	green
337.8382	1.0167	ITI	n/a	n/a	n/a	n/a	n/a	n/a	n/a	n/a
338.8549	0.5167	FIXCROSS	n/a	n/a	n/a	n/a	n/a	n/a	n/a	n/a
339.3716	1.0334	COLOR_NAME	17	Neutral	niebieski	blue	Neutral	Neutral	hit	n/a
340.3872	n/a	RESPONSE	n/a	n/a	n/a	n/a	n/a	n/a	n/a	blue
340.4049	1.0167	ITI	n/a	n/a	n/a	n/a	n/a	n/a	n/a	n/a
341.4216	0.5167	FIXCROSS	n/a	n/a	n/a	n/a	n/a	n/a	n/a	n/a
341.9383	0.7333	COLOR_NAME	18	Incongruent	niebieski	blue	zielony	green	hit	n/a
342.6404	n/a	RESPONSE	n/a	n/a	n/a	n/a	n/a	n/a	n/a	blue
342.6716	1.0167	ITI	n/a	n/a	n/a	n/a	n/a	n/a	n/a	n/a
343.6883	0.5167	FIXCROSS	n/a	n/a	n/a	n/a	n/a	n/a	n/a	n/a
344.2049	0.9834	COLOR_NAME	19	Neutral	czerwony	red	Neutral	Neutral	hit	n/a
345.1652	n/a	RESPONSE	n/a	n/a	n/a	n/a	n/a	n/a	n/a	red
345.1883	1.0167	ITI	n/a	n/a	n/a	n/a	n/a	n/a	n/a	n/a
346.205	0.5167	FIXCROSS	n/a	n/a	n/a	n/a	n/a	n/a	n/a	n/a
346.7216	1.05	COLOR_NAME	20	Incongruent	zielony	green	czerwony	red	hit	n/a
347.754	n/a	RESPONSE	n/a	n/a	n/a	n/a	n/a	n/a	n/a	green
347.7716	1.0167	ITI	n/a	n/a	n/a	n/a	n/a	n/a	n/a	n/a
348.7883	0.5167	FIXCROSS	n/a	n/a	n/a	n/a	n/a	n/a	n/a	n/a
349.305	0.8	COLOR_NAME	21	Incongruent	żółty	yellow	czerwony	red	hit	n/a
350.087	n/a	RESPONSE	n/a	n/a	n/a	n/a	n/a	n/a	n/a	yellow
350.105	1.0167	ITI	n/a	n/a	n/a	n/a	n/a	n/a	n/a	n/a
351.1217	0.5167	FIXCROSS	n/a	n/a	n/a	n/a	n/a	n/a	n/a	n/a
351.6383	0.5167	COLOR_NAME	22	Incongruent	żółty	yellow	czerwony	red	hit	n/a
352.1325	n/a	RESPONSE	n/a	n/a	n/a	n/a	n/a	n/a	n/a	yellow
352.155	1.0167	ITI	n/a	n/a	n/a	n/a	n/a	n/a	n/a	n/a
353.1717	0.5167	FIXCROSS	n/a	n/a	n/a	n/a	n/a	n/a	n/a	n/a
353.6883	0.8833	COLOR_NAME	23	Neutral	czerwony	red	Neutral	Neutral	hit	n/a
354.5455	n/a	RESPONSE	n/a	n/a	n/a	n/a	n/a	n/a	n/a	red
354.5717	1.0167	ITI	n/a	n/a	n/a	n/a	n/a	n/a	n/a	n/a
355.5884	0.5167	FIXCROSS	n/a	n/a	n/a	n/a	n/a	n/a	n/a	n/a
356.105	0.85	COLOR_NAME	24	Neutral	niebieski	blue	Neutral	Neutral	hit	n/a
356.9265	n/a	RESPONSE	n/a	n/a	n/a	n/a	n/a	n/a	n/a	blue
356.955	1.0167	ITI	n/a	n/a	n/a	n/a	n/a	n/a	n/a	n/a
357.9717	0.5167	FIXCROSS	n/a	n/a	n/a	n/a	n/a	n/a	n/a	n/a
358.4884	0.8	COLOR_NAME	25	Neutral	żółty	yellow	Neutral	Neutral	hit	n/a
359.2597	n/a	RESPONSE	n/a	n/a	n/a	n/a	n/a	n/a	n/a	yellow
359.2884	1.0167	ITI	n/a	n/a	n/a	n/a	n/a	n/a	n/a	n/a
360.305	0.5167	FIXCROSS	n/a	n/a	n/a	n/a	n/a	n/a	n/a	n/a
360.8217	0.6833	COLOR_NAME	26	Incongruent	czerwony	red	niebieski	blue	hit	n/a
361.4808	n/a	RESPONSE	n/a	n/a	n/a	n/a	n/a	n/a	n/a	red
361.5051	1.0167	ITI	n/a	n/a	n/a	n/a	n/a	n/a	n/a	n/a
362.5217	0.5167	FIXCROSS	n/a	n/a	n/a	n/a	n/a	n/a	n/a	n/a
363.0384	0.7	COLOR_NAME	27	Neutral	niebieski	blue	Neutral	Neutral	hit	n/a
363.718	n/a	RESPONSE	n/a	n/a	n/a	n/a	n/a	n/a	n/a	blue
363.7384	1.0167	ITI	n/a	n/a	n/a	n/a	n/a	n/a	n/a	n/a
364.7551	0.5167	FIXCROSS	n/a	n/a	n/a	n/a	n/a	n/a	n/a	n/a
365.2717	0.85	COLOR_NAME	28	Neutral	żółty	yellow	Neutral	Neutral	hit	n/a
366.0991	n/a	RESPONSE	n/a	n/a	n/a	n/a	n/a	n/a	n/a	yellow
366.1218	1.0167	ITI	n/a	n/a	n/a	n/a	n/a	n/a	n/a	n/a
367.1384	0.5167	FIXCROSS	n/a	n/a	n/a	n/a	n/a	n/a	n/a	n/a
367.6551	0.5833	COLOR_NAME	29	Incongruent	żółty	yellow	zielony	green	hit	n/a
368.2084	n/a	RESPONSE	n/a	n/a	n/a	n/a	n/a	n/a	n/a	yellow
368.2384	1.0167	ITI	n/a	n/a	n/a	n/a	n/a	n/a	n/a	n/a
369.2551	0.5167	FIXCROSS	n/a	n/a	n/a	n/a	n/a	n/a	n/a	n/a
369.7718	0.9667	COLOR_NAME	30	Neutral	zielony	green	Neutral	Neutral	hit	n/a
370.7173	n/a	RESPONSE	n/a	n/a	n/a	n/a	n/a	n/a	n/a	green
370.7385	1.0167	ITI	n/a	n/a	n/a	n/a	n/a	n/a	n/a	n/a
371.7551	0.5167	FIXCROSS	n/a	n/a	n/a	n/a	n/a	n/a	n/a	n/a
372.2718	0.9333	COLOR_NAME	31	Incongruent	niebieski	blue	żółty	yellow	hit	n/a
373.1783	n/a	RESPONSE	n/a	n/a	n/a	n/a	n/a	n/a	n/a	blue
373.2051	1.0167	ITI	n/a	n/a	n/a	n/a	n/a	n/a	n/a	n/a
374.2218	0.5167	FIXCROSS	n/a	n/a	n/a	n/a	n/a	n/a	n/a	n/a
374.7385	0.5667	COLOR_NAME	32	Neutral	żółty	yellow	Neutral	Neutral	hit	n/a
375.2876	n/a	RESPONSE	n/a	n/a	n/a	n/a	n/a	n/a	n/a	yellow
375.3052	1.0167	ITI	n/a	n/a	n/a	n/a	n/a	n/a	n/a	n/a
376.3218	0.5167	FIXCROSS	n/a	n/a	n/a	n/a	n/a	n/a	n/a	n/a
376.8385	0.9	COLOR_NAME	33	Incongruent	zielony	green	czerwony	red	hit	n/a
377.7166	n/a	RESPONSE	n/a	n/a	n/a	n/a	n/a	n/a	n/a	green
377.7385	1.0167	ITI	n/a	n/a	n/a	n/a	n/a	n/a	n/a	n/a
378.7552	0.5167	FIXCROSS	n/a	n/a	n/a	n/a	n/a	n/a	n/a	n/a
379.2719	0.7	COLOR_NAME	34	Incongruent	czerwony	red	żółty	yellow	hit	n/a
379.9378	n/a	RESPONSE	n/a	n/a	n/a	n/a	n/a	n/a	n/a	red
379.9719	1.0167	ITI	n/a	n/a	n/a	n/a	n/a	n/a	n/a	n/a
380.9885	0.5167	FIXCROSS	n/a	n/a	n/a	n/a	n/a	n/a	n/a	n/a
381.5052	0.4167	COLOR_NAME	35	Incongruent	zielony	green	niebieski	blue	incorrect	n/a
381.9034	n/a	RESPONSE	n/a	n/a	n/a	n/a	n/a	n/a	n/a	blue
381.9219	1.0167	ITI	n/a	n/a	n/a	n/a	n/a	n/a	n/a	n/a
382.9385	0.5167	FIXCROSS	n/a	n/a	n/a	n/a	n/a	n/a	n/a	n/a
383.4552	0.9	COLOR_NAME	36	Neutral	czerwony	red	Neutral	Neutral	hit	n/a
384.3324	n/a	RESPONSE	n/a	n/a	n/a	n/a	n/a	n/a	n/a	red
384.3552	1.0167	ITI	n/a	n/a	n/a	n/a	n/a	n/a	n/a	n/a
385.3719	0.5167	FIXCROSS	n/a	n/a	n/a	n/a	n/a	n/a	n/a	n/a
385.8886	0.85	COLOR_NAME	37	Incongruent	czerwony	red	żółty	yellow	hit	n/a
386.7134	n/a	RESPONSE	n/a	n/a	n/a	n/a	n/a	n/a	n/a	red
386.7386	1.0167	ITI	n/a	n/a	n/a	n/a	n/a	n/a	n/a	n/a
387.7553	0.5167	FIXCROSS	n/a	n/a	n/a	n/a	n/a	n/a	n/a	n/a
388.2719	0.9667	COLOR_NAME	38	Neutral	niebieski	blue	Neutral	Neutral	hit	n/a
389.2063	n/a	RESPONSE	n/a	n/a	n/a	n/a	n/a	n/a	n/a	blue
389.2386	1.0167	ITI	n/a	n/a	n/a	n/a	n/a	n/a	n/a	n/a
390.2553	0.5167	FIXCROSS	n/a	n/a	n/a	n/a	n/a	n/a	n/a	n/a
390.7719	0.6	COLOR_NAME	39	Neutral	żółty	yellow	Neutral	Neutral	hit	n/a
391.3477	n/a	RESPONSE	n/a	n/a	n/a	n/a	n/a	n/a	n/a	yellow
391.3719	1.0167	ITI	n/a	n/a	n/a	n/a	n/a	n/a	n/a	n/a
392.3886	0.5167	FIXCROSS	n/a	n/a	n/a	n/a	n/a	n/a	n/a	n/a
392.9053	0.8333	COLOR_NAME	40	Incongruent	żółty	yellow	czerwony	red	hit	n/a
393.7127	n/a	RESPONSE	n/a	n/a	n/a	n/a	n/a	n/a	n/a	yellow
393.7386	1.0167	ITI	n/a	n/a	n/a	n/a	n/a	n/a	n/a	n/a
394.7553	0.5167	FIXCROSS	n/a	n/a	n/a	n/a	n/a	n/a	n/a	n/a
395.272	1.1667	COLOR_NAME	41	Neutral	czerwony	red	Neutral	Neutral	hit	n/a
396.4134	n/a	RESPONSE	n/a	n/a	n/a	n/a	n/a	n/a	n/a	red
396.4386	1.0167	ITI	n/a	n/a	n/a	n/a	n/a	n/a	n/a	n/a
397.4553	0.5167	FIXCROSS	n/a	n/a	n/a	n/a	n/a	n/a	n/a	n/a
397.972	0.9667	COLOR_NAME	42	Incongruent	niebieski	blue	czerwony	red	hit	n/a
398.9062	n/a	RESPONSE	n/a	n/a	n/a	n/a	n/a	n/a	n/a	blue
398.9387	1.0167	ITI	n/a	n/a	n/a	n/a	n/a	n/a	n/a	n/a
399.9553	0.5167	FIXCROSS	n/a	n/a	n/a	n/a	n/a	n/a	n/a	n/a
400.472	0.6667	COLOR_NAME	43	Incongruent	niebieski	blue	żółty	yellow	hit	n/a
401.1115	n/a	RESPONSE	n/a	n/a	n/a	n/a	n/a	n/a	n/a	blue
401.1387	1.0167	ITI	n/a	n/a	n/a	n/a	n/a	n/a	n/a	n/a
402.1553	0.5167	FIXCROSS	n/a	n/a	n/a	n/a	n/a	n/a	n/a	n/a
402.672	0.9833	COLOR_NAME	44	Incongruent	żółty	yellow	zielony	green	hit	n/a
403.6363	n/a	RESPONSE	n/a	n/a	n/a	n/a	n/a	n/a	n/a	yellow
403.6554	1.0167	ITI	n/a	n/a	n/a	n/a	n/a	n/a	n/a	n/a
404.672	0.5167	FIXCROSS	n/a	n/a	n/a	n/a	n/a	n/a	n/a	n/a
405.1887	0.7667	COLOR_NAME	45	Neutral	żółty	yellow	Neutral	Neutral	hit	n/a
405.9374	n/a	RESPONSE	n/a	n/a	n/a	n/a	n/a	n/a	n/a	yellow
405.9554	1.0167	ITI	n/a	n/a	n/a	n/a	n/a	n/a	n/a	n/a
406.972	0.5167	FIXCROSS	n/a	n/a	n/a	n/a	n/a	n/a	n/a	n/a
407.4887	0.7333	COLOR_NAME	46	Incongruent	niebieski	blue	zielony	green	hit	n/a
408.1906	n/a	RESPONSE	n/a	n/a	n/a	n/a	n/a	n/a	n/a	blue
408.2221	1.0167	ITI	n/a	n/a	n/a	n/a	n/a	n/a	n/a	n/a
409.2387	0.5167	FIXCROSS	n/a	n/a	n/a	n/a	n/a	n/a	n/a	n/a
409.7554	0.85	COLOR_NAME	47	Neutral	zielony	green	Neutral	Neutral	hit	n/a
410.5716	n/a	RESPONSE	n/a	n/a	n/a	n/a	n/a	n/a	n/a	green
410.6054	1.0167	ITI	n/a	n/a	n/a	n/a	n/a	n/a	n/a	n/a
411.6221	0.5167	FIXCROSS	n/a	n/a	n/a	n/a	n/a	n/a	n/a	n/a
412.1388	0.85	COLOR_NAME	48	Incongruent	zielony	green	niebieski	blue	hit	n/a
412.9687	n/a	RESPONSE	n/a	n/a	n/a	n/a	n/a	n/a	n/a	green
412.9888	1.0167	ITI	n/a	n/a	n/a	n/a	n/a	n/a	n/a	n/a
414.0054	0.5167	FIXCROSS	n/a	n/a	n/a	n/a	n/a	n/a	n/a	n/a
414.5221	0.85	COLOR_NAME	49	Incongruent	czerwony	red	niebieski	blue	hit	n/a
415.3497	n/a	RESPONSE	n/a	n/a	n/a	n/a	n/a	n/a	n/a	red
415.3721	1.0167	ITI	n/a	n/a	n/a	n/a	n/a	n/a	n/a	n/a
416.3888	0.5167	FIXCROSS	n/a	n/a	n/a	n/a	n/a	n/a	n/a	n/a
416.9055	0.7667	COLOR_NAME	50	Neutral	czerwony	red	Neutral	Neutral	hit	n/a
417.6508	n/a	RESPONSE	n/a	n/a	n/a	n/a	n/a	n/a	n/a	red
417.6721	1.0167	ITI	n/a	n/a	n/a	n/a	n/a	n/a	n/a	n/a
418.6888	0.5167	FIXCROSS	n/a	n/a	n/a	n/a	n/a	n/a	n/a	n/a
419.2055	0.8	COLOR_NAME	51	Neutral	zielony	green	Neutral	Neutral	hit	n/a
419.984	n/a	RESPONSE	n/a	n/a	n/a	n/a	n/a	n/a	n/a	green
420.0055	1.0167	ITI	n/a	n/a	n/a	n/a	n/a	n/a	n/a	n/a
421.0222	0.5167	FIXCROSS	n/a	n/a	n/a	n/a	n/a	n/a	n/a	n/a
421.5388	0.7667	COLOR_NAME	52	Neutral	niebieski	blue	Neutral	Neutral	hit	n/a
422.285	n/a	RESPONSE	n/a	n/a	n/a	n/a	n/a	n/a	n/a	blue
422.3055	1.0167	ITI	n/a	n/a	n/a	n/a	n/a	n/a	n/a	n/a
423.3222	0.5167	FIXCROSS	n/a	n/a	n/a	n/a	n/a	n/a	n/a	n/a
423.8388	1.2	COLOR_NAME	53	Neutral	niebieski	blue	Neutral	Neutral	hit	n/a
425.0175	n/a	RESPONSE	n/a	n/a	n/a	n/a	n/a	n/a	n/a	blue
425.0388	1.0167	ITI	n/a	n/a	n/a	n/a	n/a	n/a	n/a	n/a
426.0555	0.5167	FIXCROSS	n/a	n/a	n/a	n/a	n/a	n/a	n/a	n/a
426.5722	0.8167	COLOR_NAME	54	Neutral	żółty	yellow	Neutral	Neutral	hit	n/a
427.3666	n/a	RESPONSE	n/a	n/a	n/a	n/a	n/a	n/a	n/a	yellow
427.3889	1.0167	ITI	n/a	n/a	n/a	n/a	n/a	n/a	n/a	n/a
428.4055	0.5167	FIXCROSS	n/a	n/a	n/a	n/a	n/a	n/a	n/a	n/a
428.9222	0.75	COLOR_NAME	55	Incongruent	żółty	yellow	niebieski	blue	hit	n/a
429.6519	n/a	RESPONSE	n/a	n/a	n/a	n/a	n/a	n/a	n/a	yellow
429.6722	1.0167	ITI	n/a	n/a	n/a	n/a	n/a	n/a	n/a	n/a
430.6889	0.5167	FIXCROSS	n/a	n/a	n/a	n/a	n/a	n/a	n/a	n/a
431.2056	0.9	COLOR_NAME	56	Neutral	zielony	green	Neutral	Neutral	hit	n/a
432.0808	n/a	RESPONSE	n/a	n/a	n/a	n/a	n/a	n/a	n/a	green
432.1056	1.0167	ITI	n/a	n/a	n/a	n/a	n/a	n/a	n/a	n/a
433.1222	0.5167	FIXCROSS	n/a	n/a	n/a	n/a	n/a	n/a	n/a	n/a
433.6389	0.8167	COLOR_NAME	57	Neutral	czerwony	red	Neutral	Neutral	hit	n/a
434.4299	n/a	RESPONSE	n/a	n/a	n/a	n/a	n/a	n/a	n/a	red
434.4556	1.0167	ITI	n/a	n/a	n/a	n/a	n/a	n/a	n/a	n/a
435.4723	0.5167	FIXCROSS	n/a	n/a	n/a	n/a	n/a	n/a	n/a	n/a
435.9889	0.9667	COLOR_NAME	58	Neutral	zielony	green	Neutral	Neutral	hit	n/a
436.9228	n/a	RESPONSE	n/a	n/a	n/a	n/a	n/a	n/a	n/a	green
436.9556	1.0167	ITI	n/a	n/a	n/a	n/a	n/a	n/a	n/a	n/a
437.9723	0.5167	FIXCROSS	n/a	n/a	n/a	n/a	n/a	n/a	n/a	n/a
438.489	0.8167	COLOR_NAME	59	Incongruent	niebieski	blue	czerwony	red	hit	n/a
439.2719	n/a	RESPONSE	n/a	n/a	n/a	n/a	n/a	n/a	n/a	blue
439.3056	1.0167	ITI	n/a	n/a	n/a	n/a	n/a	n/a	n/a	n/a
440.3223	0.5167	FIXCROSS	n/a	n/a	n/a	n/a	n/a	n/a	n/a	n/a
440.839	1.0167	COLOR_NAME	60	Neutral	czerwony	red	Neutral	Neutral	hit	n/a
441.8287	n/a	RESPONSE	n/a	n/a	n/a	n/a	n/a	n/a	n/a	red
441.8556	1.0167	ITI	n/a	n/a	n/a	n/a	n/a	n/a	n/a	n/a
442.8723	0.5167	FIXCROSS	n/a	n/a	n/a	n/a	n/a	n/a	n/a	n/a
443.389	0.6167	COLOR_NAME	61	Incongruent	czerwony	red	zielony	green	hit	n/a
443.9859	n/a	RESPONSE	n/a	n/a	n/a	n/a	n/a	n/a	n/a	red
444.0057	1.0167	ITI	n/a	n/a	n/a	n/a	n/a	n/a	n/a	n/a
445.0223	0.5167	FIXCROSS	n/a	n/a	n/a	n/a	n/a	n/a	n/a	n/a
445.539	0.8333	COLOR_NAME	62	Neutral	niebieski	blue	Neutral	Neutral	hit	n/a
446.351	n/a	RESPONSE	n/a	n/a	n/a	n/a	n/a	n/a	n/a	blue
446.3723	1.0167	ITI	n/a	n/a	n/a	n/a	n/a	n/a	n/a	n/a
447.389	0.5167	FIXCROSS	n/a	n/a	n/a	n/a	n/a	n/a	n/a	n/a
447.9057	0.8	COLOR_NAME	63	Incongruent	zielony	green	żółty	yellow	hit	n/a
448.6842	n/a	RESPONSE	n/a	n/a	n/a	n/a	n/a	n/a	n/a	green
448.7057	1.0167	ITI	n/a	n/a	n/a	n/a	n/a	n/a	n/a	n/a
449.7224	0.5167	FIXCROSS	n/a	n/a	n/a	n/a	n/a	n/a	n/a	n/a
450.239	0.8167	COLOR_NAME	64	Neutral	zielony	green	Neutral	Neutral	hit	n/a
451.0332	n/a	RESPONSE	n/a	n/a	n/a	n/a	n/a	n/a	n/a	green
451.0557	1.0167	ITI	n/a	n/a	n/a	n/a	n/a	n/a	n/a	n/a
452.0724	0.5167	FIXCROSS	n/a	n/a	n/a	n/a	n/a	n/a	n/a	n/a
452.5891	0.7167	COLOR_NAME	65	Neutral	niebieski	blue	Neutral	Neutral	hit	n/a
453.2865	n/a	RESPONSE	n/a	n/a	n/a	n/a	n/a	n/a	n/a	blue
453.3057	1.0167	ITI	n/a	n/a	n/a	n/a	n/a	n/a	n/a	n/a
454.3224	0.5167	FIXCROSS	n/a	n/a	n/a	n/a	n/a	n/a	n/a	n/a
454.8391	0.6167	COLOR_NAME	66	Incongruent	niebieski	blue	żółty	yellow	hit	n/a
455.4278	n/a	RESPONSE	n/a	n/a	n/a	n/a	n/a	n/a	n/a	blue
455.4557	1.0167	ITI	n/a	n/a	n/a	n/a	n/a	n/a	n/a	n/a
456.4724	0.5167	FIXCROSS	n/a	n/a	n/a	n/a	n/a	n/a	n/a	n/a
456.9891	1.2333	COLOR_NAME	67	Neutral	żółty	yellow	Neutral	Neutral	hit	n/a
458.1923	n/a	RESPONSE	n/a	n/a	n/a	n/a	n/a	n/a	n/a	yellow
458.2224	1.0167	ITI	n/a	n/a	n/a	n/a	n/a	n/a	n/a	n/a
459.2391	0.5167	FIXCROSS	n/a	n/a	n/a	n/a	n/a	n/a	n/a	n/a
459.7558	1.3834	COLOR_NAME	68	Neutral	niebieski	blue	Neutral	Neutral	hit	n/a
461.1166	n/a	RESPONSE	n/a	n/a	n/a	n/a	n/a	n/a	n/a	blue
461.1391	1.0167	ITI	n/a	n/a	n/a	n/a	n/a	n/a	n/a	n/a
462.1558	0.5167	FIXCROSS	n/a	n/a	n/a	n/a	n/a	n/a	n/a	n/a
462.6724	1.1333	COLOR_NAME	69	Neutral	zielony	green	Neutral	Neutral	hit	n/a
463.7855	n/a	RESPONSE	n/a	n/a	n/a	n/a	n/a	n/a	n/a	green
463.8058	1.0167	ITI	n/a	n/a	n/a	n/a	n/a	n/a	n/a	n/a
464.8225	0.5167	FIXCROSS	n/a	n/a	n/a	n/a	n/a	n/a	n/a	n/a
465.3391	0.6333	COLOR_NAME	70	Incongruent	zielony	green	czerwony	red	hit	n/a
465.9427	n/a	RESPONSE	n/a	n/a	n/a	n/a	n/a	n/a	n/a	green
465.9725	1.0167	ITI	n/a	n/a	n/a	n/a	n/a	n/a	n/a	n/a
466.9892	0.5167	FIXCROSS	n/a	n/a	n/a	n/a	n/a	n/a	n/a	n/a
467.5058	1.4833	COLOR_NAME	71	Incongruent	czerwony	red	zielony	green	hit	n/a
468.9629	n/a	RESPONSE	n/a	n/a	n/a	n/a	n/a	n/a	n/a	red
468.9892	1.0167	ITI	n/a	n/a	n/a	n/a	n/a	n/a	n/a	n/a
470.0058	0.5167	FIXCROSS	n/a	n/a	n/a	n/a	n/a	n/a	n/a	n/a
470.5225	0.8167	COLOR_NAME	72	Neutral	czerwony	red	Neutral	Neutral	hit	n/a
471.312	n/a	RESPONSE	n/a	n/a	n/a	n/a	n/a	n/a	n/a	red
471.3392	1.0333	ITI	n/a	n/a	n/a	n/a	n/a	n/a	n/a	n/a
478.0237	n/a	RESPONSE	n/a	n/a	n/a	n/a	n/a	n/a	n/a	n/a
