onset	duration	trial_type	trial_number	stroop_condition	stim_text(PL)	stim_text(eng)	stim_color(PL)	stim_color(eng)	response_type	response_color
0.0	n/a	RESPONSE	n/a	n/a	n/a	n/a	n/a	n/a	n/a	n/a
0.0345	1.0167	ITI	n/a	n/a	n/a	n/a	n/a	n/a	n/a	n/a
1.0512	0.5	FIXCROSS	n/a	n/a	n/a	n/a	n/a	n/a	n/a	n/a
1.5512	1.2666	T_INK	1	Neutral	xxxxxxxxx	xxxxxxxxx	żółty	yellow	hit	n/a
2.8122	n/a	RESPONSE	n/a	n/a	n/a	n/a	n/a	n/a	n/a	yellow
2.8178	0.5	FEEDBACK	n/a	n/a	n/a	n/a	n/a	n/a	n/a	n/a
3.3178	1.0	ITI	n/a	n/a	n/a	n/a	n/a	n/a	n/a	n/a
4.3178	0.5	FIXCROSS	n/a	n/a	n/a	n/a	n/a	n/a	n/a	n/a
4.8178	0.9833	T_INK	2	Neutral	xxxxx	xxxxx	czerwony	red	hit	n/a
5.7841	n/a	RESPONSE	n/a	n/a	n/a	n/a	n/a	n/a	n/a	red
5.8011	0.5	FEEDBACK	n/a	n/a	n/a	n/a	n/a	n/a	n/a	n/a
6.3011	1.0	ITI	n/a	n/a	n/a	n/a	n/a	n/a	n/a	n/a
7.3011	0.5	FIXCROSS	n/a	n/a	n/a	n/a	n/a	n/a	n/a	n/a
7.8011	0.7167	T_INK	3	Neutral	xxxxx	xxxxx	zielony	green	hit	n/a
8.5006	n/a	RESPONSE	n/a	n/a	n/a	n/a	n/a	n/a	n/a	green
8.5177	0.5	FEEDBACK	n/a	n/a	n/a	n/a	n/a	n/a	n/a	n/a
9.0177	1.0	ITI	n/a	n/a	n/a	n/a	n/a	n/a	n/a	n/a
10.0177	0.5	FIXCROSS	n/a	n/a	n/a	n/a	n/a	n/a	n/a	n/a
10.5177	0.6167	T_INK	4	Neutral	xxxxxxxxx	xxxxxxxxx	zielony	green	hit	n/a
11.1211	n/a	RESPONSE	n/a	n/a	n/a	n/a	n/a	n/a	n/a	green
11.1343	0.5	FEEDBACK	n/a	n/a	n/a	n/a	n/a	n/a	n/a	n/a
11.6343	1.0	ITI	n/a	n/a	n/a	n/a	n/a	n/a	n/a	n/a
12.6343	0.5	FIXCROSS	n/a	n/a	n/a	n/a	n/a	n/a	n/a	n/a
13.1343	1.45	T_INK	5	Incongruent	niebieski	blue	czerwony	red	hit	n/a
14.5726	n/a	RESPONSE	n/a	n/a	n/a	n/a	n/a	n/a	n/a	red
14.5843	0.5	FEEDBACK	n/a	n/a	n/a	n/a	n/a	n/a	n/a	n/a
15.0843	1.0	ITI	n/a	n/a	n/a	n/a	n/a	n/a	n/a	n/a
16.0842	0.5	FIXCROSS	n/a	n/a	n/a	n/a	n/a	n/a	n/a	n/a
16.5842	0.95	T_INK	6	Incongruent	niebieski	blue	żółty	yellow	incorrect	n/a
17.5286	n/a	RESPONSE	n/a	n/a	n/a	n/a	n/a	n/a	n/a	blue
17.5342	0.5	FEEDBACK	n/a	n/a	n/a	n/a	n/a	n/a	n/a	n/a
18.0342	1.0	ITI	n/a	n/a	n/a	n/a	n/a	n/a	n/a	n/a
19.0342	0.5	FIXCROSS	n/a	n/a	n/a	n/a	n/a	n/a	n/a	n/a
19.5342	0.8666	T_INK	7	Neutral	xxxxxxxxx	xxxxxxxxx	czerwony	red	hit	n/a
20.3888	n/a	RESPONSE	n/a	n/a	n/a	n/a	n/a	n/a	n/a	red
20.4008	0.5	FEEDBACK	n/a	n/a	n/a	n/a	n/a	n/a	n/a	n/a
20.9008	1.0	ITI	n/a	n/a	n/a	n/a	n/a	n/a	n/a	n/a
21.9008	0.5	FIXCROSS	n/a	n/a	n/a	n/a	n/a	n/a	n/a	n/a
22.4008	0.6	T_INK	8	Incongruent	zielony	green	czerwony	red	hit	n/a
22.9932	n/a	RESPONSE	n/a	n/a	n/a	n/a	n/a	n/a	n/a	red
23.0008	0.5	FEEDBACK	n/a	n/a	n/a	n/a	n/a	n/a	n/a	n/a
23.5008	1.0	ITI	n/a	n/a	n/a	n/a	n/a	n/a	n/a	n/a
24.5007	0.5	FIXCROSS	n/a	n/a	n/a	n/a	n/a	n/a	n/a	n/a
25.0007	0.6666	T_INK	9	Incongruent	zielony	green	żółty	yellow	hit	n/a
25.6618	n/a	RESPONSE	n/a	n/a	n/a	n/a	n/a	n/a	n/a	yellow
25.6674	0.5	FEEDBACK	n/a	n/a	n/a	n/a	n/a	n/a	n/a	n/a
26.1674	1.0	ITI	n/a	n/a	n/a	n/a	n/a	n/a	n/a	n/a
27.1673	0.5	FIXCROSS	n/a	n/a	n/a	n/a	n/a	n/a	n/a	n/a
27.6673	1.3833	T_INK	10	Neutral	xxxxxxxx	xxxxxxxx	niebieski	blue	incorrect	n/a
29.0333	n/a	RESPONSE	n/a	n/a	n/a	n/a	n/a	n/a	n/a	green
29.0507	0.5	FEEDBACK	n/a	n/a	n/a	n/a	n/a	n/a	n/a	n/a
29.5506	1.0	ITI	n/a	n/a	n/a	n/a	n/a	n/a	n/a	n/a
30.5506	0.5	FIXCROSS	n/a	n/a	n/a	n/a	n/a	n/a	n/a	n/a
31.0506	0.7167	T_INK	11	Incongruent	czerwony	red	zielony	green	hit	n/a
31.7497	n/a	RESPONSE	n/a	n/a	n/a	n/a	n/a	n/a	n/a	green
31.7673	0.5	FEEDBACK	n/a	n/a	n/a	n/a	n/a	n/a	n/a	n/a
32.2673	1.0	ITI	n/a	n/a	n/a	n/a	n/a	n/a	n/a	n/a
33.2672	0.5	FIXCROSS	n/a	n/a	n/a	n/a	n/a	n/a	n/a	n/a
33.7672	0.4	T_INK	12	Incongruent	zielony	green	niebieski	blue	hit	n/a
34.1624	n/a	RESPONSE	n/a	n/a	n/a	n/a	n/a	n/a	n/a	blue
34.1672	0.5	FEEDBACK	n/a	n/a	n/a	n/a	n/a	n/a	n/a	n/a
34.6672	1.0	ITI	n/a	n/a	n/a	n/a	n/a	n/a	n/a	n/a
38.3009	n/a	RESPONSE	n/a	n/a	n/a	n/a	n/a	n/a	n/a	n/a
38.3338	1.0166	ITI	n/a	n/a	n/a	n/a	n/a	n/a	n/a	n/a
39.3504	0.5	FIXCROSS	n/a	n/a	n/a	n/a	n/a	n/a	n/a	n/a
39.8504	1.1833	INK	1	Incongruent	żółty	yellow	czerwony	red	hit	n/a
41.0174	n/a	RESPONSE	n/a	n/a	n/a	n/a	n/a	n/a	n/a	red
41.0338	1.0	ITI	n/a	n/a	n/a	n/a	n/a	n/a	n/a	n/a
42.0337	0.5	FIXCROSS	n/a	n/a	n/a	n/a	n/a	n/a	n/a	n/a
42.5337	0.5166	INK	2	Incongruent	niebieski	blue	czerwony	red	hit	n/a
43.0466	n/a	RESPONSE	n/a	n/a	n/a	n/a	n/a	n/a	n/a	red
43.0504	1.0	ITI	n/a	n/a	n/a	n/a	n/a	n/a	n/a	n/a
44.0504	0.5	FIXCROSS	n/a	n/a	n/a	n/a	n/a	n/a	n/a	n/a
44.5504	0.55	INK	3	Neutral	xxxxx	xxxxx	niebieski	blue	hit	n/a
45.092	n/a	RESPONSE	n/a	n/a	n/a	n/a	n/a	n/a	n/a	blue
45.1003	1.0	ITI	n/a	n/a	n/a	n/a	n/a	n/a	n/a	n/a
46.1003	0.5	FIXCROSS	n/a	n/a	n/a	n/a	n/a	n/a	n/a	n/a
46.6003	0.35	INK	4	Incongruent	niebieski	blue	zielony	green	hit	n/a
46.9454	n/a	RESPONSE	n/a	n/a	n/a	n/a	n/a	n/a	n/a	green
46.9503	1.0	ITI	n/a	n/a	n/a	n/a	n/a	n/a	n/a	n/a
47.9503	0.5	FIXCROSS	n/a	n/a	n/a	n/a	n/a	n/a	n/a	n/a
48.4503	0.4	INK	5	Incongruent	zielony	green	czerwony	red	hit	n/a
48.8469	n/a	RESPONSE	n/a	n/a	n/a	n/a	n/a	n/a	n/a	red
48.8503	1.0	ITI	n/a	n/a	n/a	n/a	n/a	n/a	n/a	n/a
49.8503	0.5	FIXCROSS	n/a	n/a	n/a	n/a	n/a	n/a	n/a	n/a
50.3502	0.6167	INK	6	Neutral	xxxxxxxx	xxxxxxxx	niebieski	blue	hit	n/a
50.9561	n/a	RESPONSE	n/a	n/a	n/a	n/a	n/a	n/a	n/a	blue
50.9669	1.0	ITI	n/a	n/a	n/a	n/a	n/a	n/a	n/a	n/a
51.9669	0.5	FIXCROSS	n/a	n/a	n/a	n/a	n/a	n/a	n/a	n/a
52.4669	1.2833	INK	7	Incongruent	żółty	yellow	zielony	green	hit	n/a
53.7365	n/a	RESPONSE	n/a	n/a	n/a	n/a	n/a	n/a	n/a	green
53.7502	1.0	ITI	n/a	n/a	n/a	n/a	n/a	n/a	n/a	n/a
54.7502	0.5	FIXCROSS	n/a	n/a	n/a	n/a	n/a	n/a	n/a	n/a
55.2502	0.3667	INK	8	Neutral	xxxxx	xxxxx	zielony	green	hit	n/a
55.606	n/a	RESPONSE	n/a	n/a	n/a	n/a	n/a	n/a	n/a	green
55.6168	1.0	ITI	n/a	n/a	n/a	n/a	n/a	n/a	n/a	n/a
56.6168	0.5	FIXCROSS	n/a	n/a	n/a	n/a	n/a	n/a	n/a	n/a
57.1168	0.3667	INK	9	Neutral	xxxxx	xxxxx	zielony	green	hit	n/a
57.4754	n/a	RESPONSE	n/a	n/a	n/a	n/a	n/a	n/a	n/a	green
57.4834	1.0	ITI	n/a	n/a	n/a	n/a	n/a	n/a	n/a	n/a
58.4834	0.5	FIXCROSS	n/a	n/a	n/a	n/a	n/a	n/a	n/a	n/a
58.9834	0.5333	INK	10	Neutral	xxxxxxxx	xxxxxxxx	zielony	green	hit	n/a
59.5048	n/a	RESPONSE	n/a	n/a	n/a	n/a	n/a	n/a	n/a	green
59.5167	1.0	ITI	n/a	n/a	n/a	n/a	n/a	n/a	n/a	n/a
60.5167	0.5	FIXCROSS	n/a	n/a	n/a	n/a	n/a	n/a	n/a	n/a
61.0167	0.7333	INK	11	Incongruent	żółty	yellow	czerwony	red	hit	n/a
61.7418	n/a	RESPONSE	n/a	n/a	n/a	n/a	n/a	n/a	n/a	red
61.75	1.0	ITI	n/a	n/a	n/a	n/a	n/a	n/a	n/a	n/a
62.75	0.5	FIXCROSS	n/a	n/a	n/a	n/a	n/a	n/a	n/a	n/a
63.25	0.3833	INK	12	Neutral	xxxxxxx	xxxxxxx	czerwony	red	hit	n/a
63.6273	n/a	RESPONSE	n/a	n/a	n/a	n/a	n/a	n/a	n/a	red
63.6333	1.0	ITI	n/a	n/a	n/a	n/a	n/a	n/a	n/a	n/a
64.6333	0.5	FIXCROSS	n/a	n/a	n/a	n/a	n/a	n/a	n/a	n/a
65.1333	0.4166	INK	13	Incongruent	czerwony	red	niebieski	blue	hit	n/a
65.5448	n/a	RESPONSE	n/a	n/a	n/a	n/a	n/a	n/a	n/a	blue
65.5499	1.0	ITI	n/a	n/a	n/a	n/a	n/a	n/a	n/a	n/a
66.5499	0.5	FIXCROSS	n/a	n/a	n/a	n/a	n/a	n/a	n/a	n/a
67.0499	0.7667	INK	14	Incongruent	niebieski	blue	żółty	yellow	hit	n/a
67.7978	n/a	RESPONSE	n/a	n/a	n/a	n/a	n/a	n/a	n/a	yellow
67.8166	1.0	ITI	n/a	n/a	n/a	n/a	n/a	n/a	n/a	n/a
68.8166	0.5	FIXCROSS	n/a	n/a	n/a	n/a	n/a	n/a	n/a	n/a
69.3166	0.4	INK	15	Incongruent	zielony	green	niebieski	blue	hit	n/a
69.6992	n/a	RESPONSE	n/a	n/a	n/a	n/a	n/a	n/a	n/a	blue
69.7165	1.0	ITI	n/a	n/a	n/a	n/a	n/a	n/a	n/a	n/a
70.7165	0.5	FIXCROSS	n/a	n/a	n/a	n/a	n/a	n/a	n/a	n/a
71.2165	0.4	INK	16	Incongruent	niebieski	blue	żółty	yellow	incorrect	n/a
71.6007	n/a	RESPONSE	n/a	n/a	n/a	n/a	n/a	n/a	n/a	green
71.6165	1.0	ITI	n/a	n/a	n/a	n/a	n/a	n/a	n/a	n/a
72.6165	0.5	FIXCROSS	n/a	n/a	n/a	n/a	n/a	n/a	n/a	n/a
73.1165	1.45	INK	17	Incongruent	czerwony	red	niebieski	blue	hit	n/a
74.5568	n/a	RESPONSE	n/a	n/a	n/a	n/a	n/a	n/a	n/a	blue
74.5665	1.0	ITI	n/a	n/a	n/a	n/a	n/a	n/a	n/a	n/a
75.5664	0.5	FIXCROSS	n/a	n/a	n/a	n/a	n/a	n/a	n/a	n/a
76.0664	0.35	INK	18	Neutral	xxxxxxxxx	xxxxxxxxx	czerwony	red	hit	n/a
76.4103	n/a	RESPONSE	n/a	n/a	n/a	n/a	n/a	n/a	n/a	red
76.4164	1.0	ITI	n/a	n/a	n/a	n/a	n/a	n/a	n/a	n/a
77.4164	0.5	FIXCROSS	n/a	n/a	n/a	n/a	n/a	n/a	n/a	n/a
77.9164	0.5333	INK	19	Incongruent	czerwony	red	niebieski	blue	hit	n/a
78.4396	n/a	RESPONSE	n/a	n/a	n/a	n/a	n/a	n/a	n/a	blue
78.4497	1.0	ITI	n/a	n/a	n/a	n/a	n/a	n/a	n/a	n/a
79.4497	0.5	FIXCROSS	n/a	n/a	n/a	n/a	n/a	n/a	n/a	n/a
79.9497	0.5167	INK	20	Neutral	xxxxxxx	xxxxxxx	czerwony	red	hit	n/a
80.4531	n/a	RESPONSE	n/a	n/a	n/a	n/a	n/a	n/a	n/a	red
80.4664	1.0	ITI	n/a	n/a	n/a	n/a	n/a	n/a	n/a	n/a
81.4663	0.5	FIXCROSS	n/a	n/a	n/a	n/a	n/a	n/a	n/a	n/a
81.9663	0.7	INK	21	Incongruent	czerwony	red	żółty	yellow	hit	n/a
82.658	n/a	RESPONSE	n/a	n/a	n/a	n/a	n/a	n/a	n/a	yellow
82.6663	1.0	ITI	n/a	n/a	n/a	n/a	n/a	n/a	n/a	n/a
83.6663	0.5	FIXCROSS	n/a	n/a	n/a	n/a	n/a	n/a	n/a	n/a
84.1663	0.5333	INK	22	Neutral	xxxxxxxxx	xxxxxxxxx	żółty	yellow	hit	n/a
84.6874	n/a	RESPONSE	n/a	n/a	n/a	n/a	n/a	n/a	n/a	yellow
84.6996	1.0	ITI	n/a	n/a	n/a	n/a	n/a	n/a	n/a	n/a
85.6996	0.5	FIXCROSS	n/a	n/a	n/a	n/a	n/a	n/a	n/a	n/a
86.1996	0.3833	INK	23	Neutral	xxxxxxxxx	xxxxxxxxx	czerwony	red	hit	n/a
86.573	n/a	RESPONSE	n/a	n/a	n/a	n/a	n/a	n/a	n/a	red
86.5829	1.0	ITI	n/a	n/a	n/a	n/a	n/a	n/a	n/a	n/a
87.5829	0.5	FIXCROSS	n/a	n/a	n/a	n/a	n/a	n/a	n/a	n/a
88.0829	0.6833	INK	24	Incongruent	zielony	green	żółty	yellow	hit	n/a
88.7621	n/a	RESPONSE	n/a	n/a	n/a	n/a	n/a	n/a	n/a	yellow
88.7662	1.0	ITI	n/a	n/a	n/a	n/a	n/a	n/a	n/a	n/a
89.7662	0.5	FIXCROSS	n/a	n/a	n/a	n/a	n/a	n/a	n/a	n/a
90.2662	0.4333	INK	25	Incongruent	zielony	green	żółty	yellow	hit	n/a
90.6954	n/a	RESPONSE	n/a	n/a	n/a	n/a	n/a	n/a	n/a	yellow
90.6995	1.0	ITI	n/a	n/a	n/a	n/a	n/a	n/a	n/a	n/a
91.6995	0.5	FIXCROSS	n/a	n/a	n/a	n/a	n/a	n/a	n/a	n/a
92.1994	0.5833	INK	26	Neutral	xxxxxxxx	xxxxxxxx	żółty	yellow	hit	n/a
92.7727	n/a	RESPONSE	n/a	n/a	n/a	n/a	n/a	n/a	n/a	yellow
92.7828	1.0	ITI	n/a	n/a	n/a	n/a	n/a	n/a	n/a	n/a
93.7828	0.5	FIXCROSS	n/a	n/a	n/a	n/a	n/a	n/a	n/a	n/a
94.2827	0.5333	INK	27	Incongruent	niebieski	blue	zielony	green	hit	n/a
94.802	n/a	RESPONSE	n/a	n/a	n/a	n/a	n/a	n/a	n/a	green
94.8161	1.0	ITI	n/a	n/a	n/a	n/a	n/a	n/a	n/a	n/a
95.8161	0.5	FIXCROSS	n/a	n/a	n/a	n/a	n/a	n/a	n/a	n/a
96.316	0.5	INK	28	Incongruent	niebieski	blue	czerwony	red	hit	n/a
96.7994	n/a	RESPONSE	n/a	n/a	n/a	n/a	n/a	n/a	n/a	red
96.816	1.0	ITI	n/a	n/a	n/a	n/a	n/a	n/a	n/a	n/a
97.816	0.5	FIXCROSS	n/a	n/a	n/a	n/a	n/a	n/a	n/a	n/a
98.316	0.75	INK	29	Neutral	xxxxxxx	xxxxxxx	niebieski	blue	hit	n/a
99.0524	n/a	RESPONSE	n/a	n/a	n/a	n/a	n/a	n/a	n/a	blue
99.066	1.0	ITI	n/a	n/a	n/a	n/a	n/a	n/a	n/a	n/a
100.066	0.5	FIXCROSS	n/a	n/a	n/a	n/a	n/a	n/a	n/a	n/a
100.566	0.5667	INK	30	Neutral	xxxxx	xxxxx	niebieski	blue	hit	n/a
101.1137	n/a	RESPONSE	n/a	n/a	n/a	n/a	n/a	n/a	n/a	blue
101.1326	1.0	ITI	n/a	n/a	n/a	n/a	n/a	n/a	n/a	n/a
102.1326	0.5	FIXCROSS	n/a	n/a	n/a	n/a	n/a	n/a	n/a	n/a
102.6326	0.5667	INK	31	Incongruent	czerwony	red	zielony	green	hit	n/a
103.191	n/a	RESPONSE	n/a	n/a	n/a	n/a	n/a	n/a	n/a	green
103.1993	1.0	ITI	n/a	n/a	n/a	n/a	n/a	n/a	n/a	n/a
104.1992	0.5	FIXCROSS	n/a	n/a	n/a	n/a	n/a	n/a	n/a	n/a
104.6992	0.4	INK	32	Neutral	xxxxx	xxxxx	czerwony	red	hit	n/a
105.0926	n/a	RESPONSE	n/a	n/a	n/a	n/a	n/a	n/a	n/a	red
105.0992	1.0	ITI	n/a	n/a	n/a	n/a	n/a	n/a	n/a	n/a
106.0992	0.5	FIXCROSS	n/a	n/a	n/a	n/a	n/a	n/a	n/a	n/a
106.5992	0.5	INK	33	Neutral	xxxxxxx	xxxxxxx	niebieski	blue	hit	n/a
107.0898	n/a	RESPONSE	n/a	n/a	n/a	n/a	n/a	n/a	n/a	blue
107.0992	1.0	ITI	n/a	n/a	n/a	n/a	n/a	n/a	n/a	n/a
108.0991	0.5	FIXCROSS	n/a	n/a	n/a	n/a	n/a	n/a	n/a	n/a
108.5991	0.35	INK	34	Neutral	xxxxxxxx	xxxxxxxx	żółty	yellow	hit	n/a
108.9434	n/a	RESPONSE	n/a	n/a	n/a	n/a	n/a	n/a	n/a	yellow
108.9491	1.0	ITI	n/a	n/a	n/a	n/a	n/a	n/a	n/a	n/a
109.9491	0.5	FIXCROSS	n/a	n/a	n/a	n/a	n/a	n/a	n/a	n/a
110.4491	1.0	INK	35	Incongruent	żółty	yellow	zielony	green	hit	n/a
111.4362	n/a	RESPONSE	n/a	n/a	n/a	n/a	n/a	n/a	n/a	green
111.4491	1.0	ITI	n/a	n/a	n/a	n/a	n/a	n/a	n/a	n/a
112.4491	0.5	FIXCROSS	n/a	n/a	n/a	n/a	n/a	n/a	n/a	n/a
112.9491	0.75	INK	36	Neutral	xxxxxxx	xxxxxxx	niebieski	blue	hit	n/a
113.6891	n/a	RESPONSE	n/a	n/a	n/a	n/a	n/a	n/a	n/a	blue
113.699	1.0	ITI	n/a	n/a	n/a	n/a	n/a	n/a	n/a	n/a
114.699	0.5	FIXCROSS	n/a	n/a	n/a	n/a	n/a	n/a	n/a	n/a
115.199	0.4833	INK	37	Neutral	xxxxxxxx	xxxxxxxx	niebieski	blue	hit	n/a
115.6705	n/a	RESPONSE	n/a	n/a	n/a	n/a	n/a	n/a	n/a	blue
115.6823	1.0	ITI	n/a	n/a	n/a	n/a	n/a	n/a	n/a	n/a
116.6823	0.5	FIXCROSS	n/a	n/a	n/a	n/a	n/a	n/a	n/a	n/a
117.1823	0.55	INK	38	Incongruent	żółty	yellow	niebieski	blue	hit	n/a
117.7158	n/a	RESPONSE	n/a	n/a	n/a	n/a	n/a	n/a	n/a	blue
117.7323	1.0	ITI	n/a	n/a	n/a	n/a	n/a	n/a	n/a	n/a
118.7323	0.5	FIXCROSS	n/a	n/a	n/a	n/a	n/a	n/a	n/a	n/a
119.2323	0.4167	INK	39	Incongruent	żółty	yellow	niebieski	blue	hit	n/a
119.6333	n/a	RESPONSE	n/a	n/a	n/a	n/a	n/a	n/a	n/a	blue
119.6489	1.0	ITI	n/a	n/a	n/a	n/a	n/a	n/a	n/a	n/a
120.6489	0.5	FIXCROSS	n/a	n/a	n/a	n/a	n/a	n/a	n/a	n/a
121.1489	0.5	INK	40	Neutral	xxxxx	xxxxx	czerwony	red	hit	n/a
121.6307	n/a	RESPONSE	n/a	n/a	n/a	n/a	n/a	n/a	n/a	red
121.6489	1.0	ITI	n/a	n/a	n/a	n/a	n/a	n/a	n/a	n/a
122.6489	0.5	FIXCROSS	n/a	n/a	n/a	n/a	n/a	n/a	n/a	n/a
123.1489	0.3667	INK	41	Incongruent	zielony	green	żółty	yellow	hit	n/a
123.5002	n/a	RESPONSE	n/a	n/a	n/a	n/a	n/a	n/a	n/a	yellow
123.5155	1.0	ITI	n/a	n/a	n/a	n/a	n/a	n/a	n/a	n/a
124.5155	0.5	FIXCROSS	n/a	n/a	n/a	n/a	n/a	n/a	n/a	n/a
125.0155	0.6333	INK	42	Incongruent	żółty	yellow	czerwony	red	hit	n/a
125.6414	n/a	RESPONSE	n/a	n/a	n/a	n/a	n/a	n/a	n/a	red
125.6488	1.0	ITI	n/a	n/a	n/a	n/a	n/a	n/a	n/a	n/a
126.6488	0.5	FIXCROSS	n/a	n/a	n/a	n/a	n/a	n/a	n/a	n/a
127.1488	0.45	INK	43	Neutral	xxxxx	xxxxx	czerwony	red	hit	n/a
127.5908	n/a	RESPONSE	n/a	n/a	n/a	n/a	n/a	n/a	n/a	red
127.5988	1.0	ITI	n/a	n/a	n/a	n/a	n/a	n/a	n/a	n/a
128.5987	0.5	FIXCROSS	n/a	n/a	n/a	n/a	n/a	n/a	n/a	n/a
129.0988	0.6333	INK	44	Neutral	xxxxxxxxx	xxxxxxxxx	zielony	green	hit	n/a
129.716	n/a	RESPONSE	n/a	n/a	n/a	n/a	n/a	n/a	n/a	green
129.7321	1.0	ITI	n/a	n/a	n/a	n/a	n/a	n/a	n/a	n/a
130.7321	0.5	FIXCROSS	n/a	n/a	n/a	n/a	n/a	n/a	n/a	n/a
131.232	0.5	INK	45	Neutral	xxxxx	xxxxx	zielony	green	hit	n/a
131.7133	n/a	RESPONSE	n/a	n/a	n/a	n/a	n/a	n/a	n/a	green
131.732	1.0	ITI	n/a	n/a	n/a	n/a	n/a	n/a	n/a	n/a
132.732	0.5	FIXCROSS	n/a	n/a	n/a	n/a	n/a	n/a	n/a	n/a
133.232	0.4	INK	46	Incongruent	niebieski	blue	zielony	green	hit	n/a
133.6147	n/a	RESPONSE	n/a	n/a	n/a	n/a	n/a	n/a	n/a	green
133.632	1.0	ITI	n/a	n/a	n/a	n/a	n/a	n/a	n/a	n/a
134.632	0.5	FIXCROSS	n/a	n/a	n/a	n/a	n/a	n/a	n/a	n/a
135.132	0.5667	INK	47	Neutral	xxxxxxxxx	xxxxxxxxx	czerwony	red	hit	n/a
135.692	n/a	RESPONSE	n/a	n/a	n/a	n/a	n/a	n/a	n/a	red
135.6986	1.0	ITI	n/a	n/a	n/a	n/a	n/a	n/a	n/a	n/a
136.6986	0.5	FIXCROSS	n/a	n/a	n/a	n/a	n/a	n/a	n/a	n/a
137.1986	0.95	INK	48	Incongruent	czerwony	red	zielony	green	hit	n/a
138.1367	n/a	RESPONSE	n/a	n/a	n/a	n/a	n/a	n/a	n/a	green
138.1486	1.0	ITI	n/a	n/a	n/a	n/a	n/a	n/a	n/a	n/a
139.1486	0.5	FIXCROSS	n/a	n/a	n/a	n/a	n/a	n/a	n/a	n/a
139.6486	0.5833	INK	49	Incongruent	zielony	green	czerwony	red	hit	n/a
140.2139	n/a	RESPONSE	n/a	n/a	n/a	n/a	n/a	n/a	n/a	red
140.2319	1.0	ITI	n/a	n/a	n/a	n/a	n/a	n/a	n/a	n/a
141.2319	0.5	FIXCROSS	n/a	n/a	n/a	n/a	n/a	n/a	n/a	n/a
141.7319	0.7333	INK	50	Neutral	xxxxxxxx	xxxxxxxx	żółty	yellow	hit	n/a
142.4509	n/a	RESPONSE	n/a	n/a	n/a	n/a	n/a	n/a	n/a	yellow
142.4652	1.0	ITI	n/a	n/a	n/a	n/a	n/a	n/a	n/a	n/a
143.4651	0.5	FIXCROSS	n/a	n/a	n/a	n/a	n/a	n/a	n/a	n/a
143.9651	0.3333	INK	51	Neutral	xxxxxxxxx	xxxxxxxxx	żółty	yellow	hit	n/a
144.2885	n/a	RESPONSE	n/a	n/a	n/a	n/a	n/a	n/a	n/a	yellow
144.2985	1.0	ITI	n/a	n/a	n/a	n/a	n/a	n/a	n/a	n/a
145.2984	0.5	FIXCROSS	n/a	n/a	n/a	n/a	n/a	n/a	n/a	n/a
145.7984	0.3667	INK	52	Neutral	xxxxxxx	xxxxxxx	żółty	yellow	hit	n/a
146.158	n/a	RESPONSE	n/a	n/a	n/a	n/a	n/a	n/a	n/a	yellow
146.1651	1.0	ITI	n/a	n/a	n/a	n/a	n/a	n/a	n/a	n/a
147.1651	0.5	FIXCROSS	n/a	n/a	n/a	n/a	n/a	n/a	n/a	n/a
147.6651	0.65	INK	53	Incongruent	czerwony	red	zielony	green	hit	n/a
148.2992	n/a	RESPONSE	n/a	n/a	n/a	n/a	n/a	n/a	n/a	green
148.3151	1.0	ITI	n/a	n/a	n/a	n/a	n/a	n/a	n/a	n/a
149.315	0.5	FIXCROSS	n/a	n/a	n/a	n/a	n/a	n/a	n/a	n/a
149.815	0.4667	INK	54	Neutral	xxxxxxxxx	xxxxxxxxx	zielony	green	hit	n/a
150.2646	n/a	RESPONSE	n/a	n/a	n/a	n/a	n/a	n/a	n/a	green
150.2817	1.0	ITI	n/a	n/a	n/a	n/a	n/a	n/a	n/a	n/a
151.2817	0.5	FIXCROSS	n/a	n/a	n/a	n/a	n/a	n/a	n/a	n/a
151.7817	0.5167	INK	55	Neutral	xxxxxxx	xxxxxxx	żółty	yellow	hit	n/a
152.2939	n/a	RESPONSE	n/a	n/a	n/a	n/a	n/a	n/a	n/a	yellow
152.2983	1.0	ITI	n/a	n/a	n/a	n/a	n/a	n/a	n/a	n/a
153.2983	0.5	FIXCROSS	n/a	n/a	n/a	n/a	n/a	n/a	n/a	n/a
153.7983	0.4	INK	56	Incongruent	żółty	yellow	zielony	green	hit	n/a
154.1954	n/a	RESPONSE	n/a	n/a	n/a	n/a	n/a	n/a	n/a	green
154.1983	1.0	ITI	n/a	n/a	n/a	n/a	n/a	n/a	n/a	n/a
155.1983	0.5	FIXCROSS	n/a	n/a	n/a	n/a	n/a	n/a	n/a	n/a
155.6982	0.35	INK	57	Neutral	xxxxxxx	xxxxxxx	czerwony	red	hit	n/a
156.0329	n/a	RESPONSE	n/a	n/a	n/a	n/a	n/a	n/a	n/a	red
156.0482	1.0	ITI	n/a	n/a	n/a	n/a	n/a	n/a	n/a	n/a
157.0482	0.5	FIXCROSS	n/a	n/a	n/a	n/a	n/a	n/a	n/a	n/a
157.5482	0.4833	INK	58	Incongruent	zielony	green	niebieski	blue	hit	n/a
158.0145	n/a	RESPONSE	n/a	n/a	n/a	n/a	n/a	n/a	n/a	blue
158.0315	1.0	ITI	n/a	n/a	n/a	n/a	n/a	n/a	n/a	n/a
159.0315	0.5	FIXCROSS	n/a	n/a	n/a	n/a	n/a	n/a	n/a	n/a
159.5315	0.5666	INK	59	Incongruent	zielony	green	czerwony	red	hit	n/a
160.0917	n/a	RESPONSE	n/a	n/a	n/a	n/a	n/a	n/a	n/a	red
160.0982	1.0	ITI	n/a	n/a	n/a	n/a	n/a	n/a	n/a	n/a
161.0981	0.5	FIXCROSS	n/a	n/a	n/a	n/a	n/a	n/a	n/a	n/a
161.5981	0.6333	INK	60	Incongruent	zielony	green	niebieski	blue	hit	n/a
162.2167	n/a	RESPONSE	n/a	n/a	n/a	n/a	n/a	n/a	n/a	blue
162.2315	1.0	ITI	n/a	n/a	n/a	n/a	n/a	n/a	n/a	n/a
163.2314	0.5	FIXCROSS	n/a	n/a	n/a	n/a	n/a	n/a	n/a	n/a
163.7314	0.4833	INK	61	Neutral	xxxxxxxx	xxxxxxxx	niebieski	blue	hit	n/a
164.1981	n/a	RESPONSE	n/a	n/a	n/a	n/a	n/a	n/a	n/a	blue
164.2148	1.0	ITI	n/a	n/a	n/a	n/a	n/a	n/a	n/a	n/a
165.2147	0.5	FIXCROSS	n/a	n/a	n/a	n/a	n/a	n/a	n/a	n/a
165.7147	0.4333	INK	62	Incongruent	niebieski	blue	czerwony	red	hit	n/a
166.1316	n/a	RESPONSE	n/a	n/a	n/a	n/a	n/a	n/a	n/a	red
166.148	1.0	ITI	n/a	n/a	n/a	n/a	n/a	n/a	n/a	n/a
167.148	0.5	FIXCROSS	n/a	n/a	n/a	n/a	n/a	n/a	n/a	n/a
167.648	0.4333	INK	63	Neutral	xxxxxxxx	xxxxxxxx	zielony	green	hit	n/a
168.0649	n/a	RESPONSE	n/a	n/a	n/a	n/a	n/a	n/a	n/a	green
168.0813	1.0	ITI	n/a	n/a	n/a	n/a	n/a	n/a	n/a	n/a
169.0813	0.5	FIXCROSS	n/a	n/a	n/a	n/a	n/a	n/a	n/a	n/a
169.5813	0.4833	INK	64	Neutral	xxxxx	xxxxx	niebieski	blue	hit	n/a
170.0463	n/a	RESPONSE	n/a	n/a	n/a	n/a	n/a	n/a	n/a	blue
170.0646	1.0	ITI	n/a	n/a	n/a	n/a	n/a	n/a	n/a	n/a
171.0646	0.5	FIXCROSS	n/a	n/a	n/a	n/a	n/a	n/a	n/a	n/a
171.5646	0.7333	INK	65	Incongruent	żółty	yellow	niebieski	blue	hit	n/a
172.2834	n/a	RESPONSE	n/a	n/a	n/a	n/a	n/a	n/a	n/a	blue
172.2979	1.0	ITI	n/a	n/a	n/a	n/a	n/a	n/a	n/a	n/a
173.2979	0.5	FIXCROSS	n/a	n/a	n/a	n/a	n/a	n/a	n/a	n/a
173.7979	0.5167	INK	66	Neutral	xxxxxxx	xxxxxxx	żółty	yellow	incorrect	n/a
174.2966	n/a	RESPONSE	n/a	n/a	n/a	n/a	n/a	n/a	n/a	green
174.3146	1.0	ITI	n/a	n/a	n/a	n/a	n/a	n/a	n/a	n/a
175.3145	0.5	FIXCROSS	n/a	n/a	n/a	n/a	n/a	n/a	n/a	n/a
175.8145	0.8833	INK	67	Neutral	xxxxxxxxx	xxxxxxxxx	zielony	green	hit	n/a
176.6935	n/a	RESPONSE	n/a	n/a	n/a	n/a	n/a	n/a	n/a	green
176.6978	1.0	ITI	n/a	n/a	n/a	n/a	n/a	n/a	n/a	n/a
177.6978	0.5	FIXCROSS	n/a	n/a	n/a	n/a	n/a	n/a	n/a	n/a
178.1978	0.3833	INK	68	Neutral	xxxxxxxx	xxxxxxxx	zielony	green	hit	n/a
178.563	n/a	RESPONSE	n/a	n/a	n/a	n/a	n/a	n/a	n/a	green
178.5811	1.0	ITI	n/a	n/a	n/a	n/a	n/a	n/a	n/a	n/a
179.5811	0.5	FIXCROSS	n/a	n/a	n/a	n/a	n/a	n/a	n/a	n/a
180.0811	0.4167	INK	69	Incongruent	niebieski	blue	żółty	yellow	hit	n/a
180.4803	n/a	RESPONSE	n/a	n/a	n/a	n/a	n/a	n/a	n/a	yellow
180.4978	1.0	ITI	n/a	n/a	n/a	n/a	n/a	n/a	n/a	n/a
181.4978	0.5	FIXCROSS	n/a	n/a	n/a	n/a	n/a	n/a	n/a	n/a
181.9978	0.3166	INK	70	Neutral	xxxxxxxxx	xxxxxxxxx	żółty	yellow	hit	n/a
182.302	n/a	RESPONSE	n/a	n/a	n/a	n/a	n/a	n/a	n/a	yellow
182.3144	1.0	ITI	n/a	n/a	n/a	n/a	n/a	n/a	n/a	n/a
183.3144	0.5	FIXCROSS	n/a	n/a	n/a	n/a	n/a	n/a	n/a	n/a
183.8144	0.4	INK	71	Incongruent	czerwony	red	żółty	yellow	hit	n/a
184.2033	n/a	RESPONSE	n/a	n/a	n/a	n/a	n/a	n/a	n/a	yellow
184.2144	1.0	ITI	n/a	n/a	n/a	n/a	n/a	n/a	n/a	n/a
185.2144	0.5	FIXCROSS	n/a	n/a	n/a	n/a	n/a	n/a	n/a	n/a
185.7143	0.3667	INK	72	Incongruent	czerwony	red	żółty	yellow	hit	n/a
186.0729	n/a	RESPONSE	n/a	n/a	n/a	n/a	n/a	n/a	n/a	yellow
186.081	1.0333	ITI	n/a	n/a	n/a	n/a	n/a	n/a	n/a	n/a
192.2246	n/a	RESPONSE	n/a	n/a	n/a	n/a	n/a	n/a	n/a	n/a
192.2476	1.0	ITI	n/a	n/a	n/a	n/a	n/a	n/a	n/a	n/a
193.2475	0.5	FIXCROSS	n/a	n/a	n/a	n/a	n/a	n/a	n/a	n/a
193.7475	1.1833	T_COLOR_NAME	1	Neutral	niebieski	blue	Neutral	Neutral	hit	n/a
194.9251	n/a	RESPONSE	n/a	n/a	n/a	n/a	n/a	n/a	n/a	blue
194.9308	0.5	FEEDBACK	n/a	n/a	n/a	n/a	n/a	n/a	n/a	n/a
195.4308	1.0	ITI	n/a	n/a	n/a	n/a	n/a	n/a	n/a	n/a
196.4308	0.5	FIXCROSS	n/a	n/a	n/a	n/a	n/a	n/a	n/a	n/a
196.9308	0.8333	T_COLOR_NAME	2	Neutral	żółty	yellow	Neutral	Neutral	hit	n/a
197.7532	n/a	RESPONSE	n/a	n/a	n/a	n/a	n/a	n/a	n/a	yellow
197.7641	0.5	FEEDBACK	n/a	n/a	n/a	n/a	n/a	n/a	n/a	n/a
198.2641	1.0	ITI	n/a	n/a	n/a	n/a	n/a	n/a	n/a	n/a
199.2641	0.5	FIXCROSS	n/a	n/a	n/a	n/a	n/a	n/a	n/a	n/a
199.7641	0.6167	T_COLOR_NAME	3	Neutral	żółty	yellow	Neutral	Neutral	hit	n/a
200.3736	n/a	RESPONSE	n/a	n/a	n/a	n/a	n/a	n/a	n/a	yellow
200.3807	0.5	FEEDBACK	n/a	n/a	n/a	n/a	n/a	n/a	n/a	n/a
200.8807	1.0	ITI	n/a	n/a	n/a	n/a	n/a	n/a	n/a	n/a
201.8807	0.5	FIXCROSS	n/a	n/a	n/a	n/a	n/a	n/a	n/a	n/a
202.3807	0.6667	T_COLOR_NAME	4	Neutral	niebieski	blue	Neutral	Neutral	hit	n/a
203.0421	n/a	RESPONSE	n/a	n/a	n/a	n/a	n/a	n/a	n/a	blue
203.0473	0.5	FEEDBACK	n/a	n/a	n/a	n/a	n/a	n/a	n/a	n/a
203.5473	1.0	ITI	n/a	n/a	n/a	n/a	n/a	n/a	n/a	n/a
204.5473	0.5	FIXCROSS	n/a	n/a	n/a	n/a	n/a	n/a	n/a	n/a
205.0473	0.5	T_COLOR_NAME	5	Neutral	niebieski	blue	Neutral	Neutral	hit	n/a
205.5347	n/a	RESPONSE	n/a	n/a	n/a	n/a	n/a	n/a	n/a	blue
205.5473	0.5	FEEDBACK	n/a	n/a	n/a	n/a	n/a	n/a	n/a	n/a
206.0473	1.0	ITI	n/a	n/a	n/a	n/a	n/a	n/a	n/a	n/a
207.0473	0.5	FIXCROSS	n/a	n/a	n/a	n/a	n/a	n/a	n/a	n/a
207.5472	0.4334	T_COLOR_NAME	6	Incongruent	czerwony	red	zielony	green	hit	n/a
207.9635	n/a	RESPONSE	n/a	n/a	n/a	n/a	n/a	n/a	n/a	red
207.9806	0.5	FEEDBACK	n/a	n/a	n/a	n/a	n/a	n/a	n/a	n/a
208.4806	1.0	ITI	n/a	n/a	n/a	n/a	n/a	n/a	n/a	n/a
209.4806	0.5	FIXCROSS	n/a	n/a	n/a	n/a	n/a	n/a	n/a	n/a
209.9806	1.1166	T_COLOR_NAME	7	Incongruent	zielony	green	czerwony	red	hit	n/a
211.0792	n/a	RESPONSE	n/a	n/a	n/a	n/a	n/a	n/a	n/a	green
211.0972	0.5	FEEDBACK	n/a	n/a	n/a	n/a	n/a	n/a	n/a	n/a
211.5972	1.0	ITI	n/a	n/a	n/a	n/a	n/a	n/a	n/a	n/a
212.5972	0.5	FIXCROSS	n/a	n/a	n/a	n/a	n/a	n/a	n/a	n/a
213.0972	0.7666	T_COLOR_NAME	8	Neutral	czerwony	red	Neutral	Neutral	hit	n/a
213.8434	n/a	RESPONSE	n/a	n/a	n/a	n/a	n/a	n/a	n/a	red
213.8638	0.5	FEEDBACK	n/a	n/a	n/a	n/a	n/a	n/a	n/a	n/a
214.3638	1.0	ITI	n/a	n/a	n/a	n/a	n/a	n/a	n/a	n/a
215.3638	0.5	FIXCROSS	n/a	n/a	n/a	n/a	n/a	n/a	n/a	n/a
215.8638	0.65	T_COLOR_NAME	9	Incongruent	zielony	green	żółty	yellow	incorrect	n/a
216.4959	n/a	RESPONSE	n/a	n/a	n/a	n/a	n/a	n/a	n/a	red
216.5138	0.5	FEEDBACK	n/a	n/a	n/a	n/a	n/a	n/a	n/a	n/a
217.0138	1.0	ITI	n/a	n/a	n/a	n/a	n/a	n/a	n/a	n/a
218.0137	0.5	FIXCROSS	n/a	n/a	n/a	n/a	n/a	n/a	n/a	n/a
218.5137	1.5833	T_COLOR_NAME	10	Incongruent	niebieski	blue	czerwony	red	hit	n/a
220.091	n/a	RESPONSE	n/a	n/a	n/a	n/a	n/a	n/a	n/a	blue
220.097	0.5	FEEDBACK	n/a	n/a	n/a	n/a	n/a	n/a	n/a	n/a
220.597	1.0	ITI	n/a	n/a	n/a	n/a	n/a	n/a	n/a	n/a
221.597	0.5	FIXCROSS	n/a	n/a	n/a	n/a	n/a	n/a	n/a	n/a
222.097	0.6667	T_COLOR_NAME	11	Incongruent	zielony	green	niebieski	blue	hit	n/a
222.7434	n/a	RESPONSE	n/a	n/a	n/a	n/a	n/a	n/a	n/a	green
222.7636	0.5	FEEDBACK	n/a	n/a	n/a	n/a	n/a	n/a	n/a	n/a
223.2636	1.0	ITI	n/a	n/a	n/a	n/a	n/a	n/a	n/a	n/a
224.2636	0.5	FIXCROSS	n/a	n/a	n/a	n/a	n/a	n/a	n/a	n/a
224.7636	0.7	T_COLOR_NAME	12	Incongruent	niebieski	blue	żółty	yellow	hit	n/a
225.4593	n/a	RESPONSE	n/a	n/a	n/a	n/a	n/a	n/a	n/a	blue
225.4636	0.5	FEEDBACK	n/a	n/a	n/a	n/a	n/a	n/a	n/a	n/a
225.9636	1.0	ITI	n/a	n/a	n/a	n/a	n/a	n/a	n/a	n/a
228.2396	n/a	RESPONSE	n/a	n/a	n/a	n/a	n/a	n/a	n/a	n/a
228.2635	1.0	ITI	n/a	n/a	n/a	n/a	n/a	n/a	n/a	n/a
229.2635	0.5	FIXCROSS	n/a	n/a	n/a	n/a	n/a	n/a	n/a	n/a
229.7635	1.35	COLOR_NAME	1	Incongruent	niebieski	blue	czerwony	red	hit	n/a
231.0997	n/a	RESPONSE	n/a	n/a	n/a	n/a	n/a	n/a	n/a	blue
231.1135	1.0	ITI	n/a	n/a	n/a	n/a	n/a	n/a	n/a	n/a
232.1135	0.5	FIXCROSS	n/a	n/a	n/a	n/a	n/a	n/a	n/a	n/a
232.6135	0.5667	COLOR_NAME	2	Neutral	zielony	green	Neutral	Neutral	hit	n/a
233.1768	n/a	RESPONSE	n/a	n/a	n/a	n/a	n/a	n/a	n/a	green
233.1801	1.0	ITI	n/a	n/a	n/a	n/a	n/a	n/a	n/a	n/a
234.1801	0.5	FIXCROSS	n/a	n/a	n/a	n/a	n/a	n/a	n/a	n/a
234.6801	0.4667	COLOR_NAME	3	Incongruent	zielony	green	żółty	yellow	hit	n/a
235.1418	n/a	RESPONSE	n/a	n/a	n/a	n/a	n/a	n/a	n/a	green
235.1467	1.0	ITI	n/a	n/a	n/a	n/a	n/a	n/a	n/a	n/a
236.1467	0.5	FIXCROSS	n/a	n/a	n/a	n/a	n/a	n/a	n/a	n/a
236.6467	0.7333	COLOR_NAME	4	Incongruent	czerwony	red	niebieski	blue	hit	n/a
237.3627	n/a	RESPONSE	n/a	n/a	n/a	n/a	n/a	n/a	n/a	red
237.38	1.0	ITI	n/a	n/a	n/a	n/a	n/a	n/a	n/a	n/a
238.38	0.5	FIXCROSS	n/a	n/a	n/a	n/a	n/a	n/a	n/a	n/a
238.88	0.5333	COLOR_NAME	5	Incongruent	niebieski	blue	zielony	green	incorrect	n/a
239.4078	n/a	RESPONSE	n/a	n/a	n/a	n/a	n/a	n/a	n/a	yellow
239.4133	1.0	ITI	n/a	n/a	n/a	n/a	n/a	n/a	n/a	n/a
240.4133	0.5	FIXCROSS	n/a	n/a	n/a	n/a	n/a	n/a	n/a	n/a
240.9133	0.8	COLOR_NAME	6	Incongruent	czerwony	red	niebieski	blue	hit	n/a
241.7087	n/a	RESPONSE	n/a	n/a	n/a	n/a	n/a	n/a	n/a	red
241.7133	1.0	ITI	n/a	n/a	n/a	n/a	n/a	n/a	n/a	n/a
242.7132	0.5	FIXCROSS	n/a	n/a	n/a	n/a	n/a	n/a	n/a	n/a
243.2132	0.5667	COLOR_NAME	7	Neutral	niebieski	blue	Neutral	Neutral	hit	n/a
243.7699	n/a	RESPONSE	n/a	n/a	n/a	n/a	n/a	n/a	n/a	blue
243.7799	1.0	ITI	n/a	n/a	n/a	n/a	n/a	n/a	n/a	n/a
244.7799	0.5	FIXCROSS	n/a	n/a	n/a	n/a	n/a	n/a	n/a	n/a
245.2799	0.65	COLOR_NAME	8	Neutral	zielony	green	Neutral	Neutral	hit	n/a
245.927	n/a	RESPONSE	n/a	n/a	n/a	n/a	n/a	n/a	n/a	green
245.9299	1.0	ITI	n/a	n/a	n/a	n/a	n/a	n/a	n/a	n/a
246.9299	0.5	FIXCROSS	n/a	n/a	n/a	n/a	n/a	n/a	n/a	n/a
247.4298	0.95	COLOR_NAME	9	Incongruent	czerwony	red	zielony	green	hit	n/a
248.3718	n/a	RESPONSE	n/a	n/a	n/a	n/a	n/a	n/a	n/a	red
248.3798	1.0	ITI	n/a	n/a	n/a	n/a	n/a	n/a	n/a	n/a
249.3798	0.5	FIXCROSS	n/a	n/a	n/a	n/a	n/a	n/a	n/a	n/a
249.8798	0.85	COLOR_NAME	10	Incongruent	żółty	yellow	zielony	green	hit	n/a
250.7207	n/a	RESPONSE	n/a	n/a	n/a	n/a	n/a	n/a	n/a	yellow
250.7298	1.0	ITI	n/a	n/a	n/a	n/a	n/a	n/a	n/a	n/a
251.7297	0.5	FIXCROSS	n/a	n/a	n/a	n/a	n/a	n/a	n/a	n/a
252.2297	0.45	COLOR_NAME	11	Incongruent	żółty	yellow	zielony	green	hit	n/a
252.67	n/a	RESPONSE	n/a	n/a	n/a	n/a	n/a	n/a	n/a	yellow
252.6797	1.0	ITI	n/a	n/a	n/a	n/a	n/a	n/a	n/a	n/a
253.6797	0.5	FIXCROSS	n/a	n/a	n/a	n/a	n/a	n/a	n/a	n/a
254.1797	0.8333	COLOR_NAME	12	Neutral	zielony	green	Neutral	Neutral	hit	n/a
255.0028	n/a	RESPONSE	n/a	n/a	n/a	n/a	n/a	n/a	n/a	green
255.013	1.0	ITI	n/a	n/a	n/a	n/a	n/a	n/a	n/a	n/a
256.013	0.5	FIXCROSS	n/a	n/a	n/a	n/a	n/a	n/a	n/a	n/a
256.513	0.4667	COLOR_NAME	13	Neutral	zielony	green	Neutral	Neutral	hit	n/a
256.9682	n/a	RESPONSE	n/a	n/a	n/a	n/a	n/a	n/a	n/a	green
256.9797	1.0	ITI	n/a	n/a	n/a	n/a	n/a	n/a	n/a	n/a
257.9796	0.5	FIXCROSS	n/a	n/a	n/a	n/a	n/a	n/a	n/a	n/a
258.4796	0.4667	COLOR_NAME	14	Incongruent	niebieski	blue	zielony	green	hit	n/a
258.9336	n/a	RESPONSE	n/a	n/a	n/a	n/a	n/a	n/a	n/a	blue
258.9463	1.0	ITI	n/a	n/a	n/a	n/a	n/a	n/a	n/a	n/a
259.9463	0.5	FIXCROSS	n/a	n/a	n/a	n/a	n/a	n/a	n/a	n/a
260.4463	0.4833	COLOR_NAME	15	Incongruent	żółty	yellow	niebieski	blue	incorrect	n/a
260.915	n/a	RESPONSE	n/a	n/a	n/a	n/a	n/a	n/a	n/a	green
260.9296	1.0	ITI	n/a	n/a	n/a	n/a	n/a	n/a	n/a	n/a
261.9296	0.5	FIXCROSS	n/a	n/a	n/a	n/a	n/a	n/a	n/a	n/a
262.4295	0.75	COLOR_NAME	16	Neutral	niebieski	blue	Neutral	Neutral	hit	n/a
263.1679	n/a	RESPONSE	n/a	n/a	n/a	n/a	n/a	n/a	n/a	blue
263.1795	1.0	ITI	n/a	n/a	n/a	n/a	n/a	n/a	n/a	n/a
264.1795	0.5	FIXCROSS	n/a	n/a	n/a	n/a	n/a	n/a	n/a	n/a
264.6795	0.55	COLOR_NAME	17	Incongruent	zielony	green	żółty	yellow	hit	n/a
265.2131	n/a	RESPONSE	n/a	n/a	n/a	n/a	n/a	n/a	n/a	green
265.2295	1.0	ITI	n/a	n/a	n/a	n/a	n/a	n/a	n/a	n/a
266.2295	0.5	FIXCROSS	n/a	n/a	n/a	n/a	n/a	n/a	n/a	n/a
266.7295	0.6333	COLOR_NAME	18	Incongruent	zielony	green	czerwony	red	hit	n/a
267.3542	n/a	RESPONSE	n/a	n/a	n/a	n/a	n/a	n/a	n/a	green
267.3628	1.0	ITI	n/a	n/a	n/a	n/a	n/a	n/a	n/a	n/a
268.3628	0.5	FIXCROSS	n/a	n/a	n/a	n/a	n/a	n/a	n/a	n/a
268.8628	0.6	COLOR_NAME	19	Incongruent	niebieski	blue	zielony	green	hit	n/a
269.4472	n/a	RESPONSE	n/a	n/a	n/a	n/a	n/a	n/a	n/a	blue
269.4627	1.0	ITI	n/a	n/a	n/a	n/a	n/a	n/a	n/a	n/a
270.4627	0.5	FIXCROSS	n/a	n/a	n/a	n/a	n/a	n/a	n/a	n/a
270.9627	0.6166	COLOR_NAME	20	Neutral	czerwony	red	Neutral	Neutral	hit	n/a
271.5725	n/a	RESPONSE	n/a	n/a	n/a	n/a	n/a	n/a	n/a	red
271.5794	1.0	ITI	n/a	n/a	n/a	n/a	n/a	n/a	n/a	n/a
272.5794	0.5	FIXCROSS	n/a	n/a	n/a	n/a	n/a	n/a	n/a	n/a
273.0794	0.5833	COLOR_NAME	21	Neutral	czerwony	red	Neutral	Neutral	hit	n/a
273.6496	n/a	RESPONSE	n/a	n/a	n/a	n/a	n/a	n/a	n/a	red
273.6627	1.0	ITI	n/a	n/a	n/a	n/a	n/a	n/a	n/a	n/a
274.6627	0.5	FIXCROSS	n/a	n/a	n/a	n/a	n/a	n/a	n/a	n/a
275.1626	0.45	COLOR_NAME	22	Incongruent	czerwony	red	zielony	green	hit	n/a
275.5988	n/a	RESPONSE	n/a	n/a	n/a	n/a	n/a	n/a	n/a	red
275.6126	1.0	ITI	n/a	n/a	n/a	n/a	n/a	n/a	n/a	n/a
276.6126	0.5	FIXCROSS	n/a	n/a	n/a	n/a	n/a	n/a	n/a	n/a
277.1126	0.65	COLOR_NAME	23	Neutral	niebieski	blue	Neutral	Neutral	hit	n/a
277.7559	n/a	RESPONSE	n/a	n/a	n/a	n/a	n/a	n/a	n/a	blue
277.7626	1.0	ITI	n/a	n/a	n/a	n/a	n/a	n/a	n/a	n/a
278.7626	0.5	FIXCROSS	n/a	n/a	n/a	n/a	n/a	n/a	n/a	n/a
279.2626	0.5667	COLOR_NAME	24	Neutral	żółty	yellow	Neutral	Neutral	hit	n/a
279.8171	n/a	RESPONSE	n/a	n/a	n/a	n/a	n/a	n/a	n/a	yellow
279.8292	1.0	ITI	n/a	n/a	n/a	n/a	n/a	n/a	n/a	n/a
280.8292	0.5	FIXCROSS	n/a	n/a	n/a	n/a	n/a	n/a	n/a	n/a
281.3292	0.5333	COLOR_NAME	25	Incongruent	żółty	yellow	niebieski	blue	hit	n/a
281.8464	n/a	RESPONSE	n/a	n/a	n/a	n/a	n/a	n/a	n/a	yellow
281.8625	1.0	ITI	n/a	n/a	n/a	n/a	n/a	n/a	n/a	n/a
282.8625	0.5	FIXCROSS	n/a	n/a	n/a	n/a	n/a	n/a	n/a	n/a
283.3625	0.4667	COLOR_NAME	26	Incongruent	żółty	yellow	czerwony	red	hit	n/a
283.8117	n/a	RESPONSE	n/a	n/a	n/a	n/a	n/a	n/a	n/a	yellow
283.8291	1.0	ITI	n/a	n/a	n/a	n/a	n/a	n/a	n/a	n/a
284.8291	0.5	FIXCROSS	n/a	n/a	n/a	n/a	n/a	n/a	n/a	n/a
285.3291	0.5833	COLOR_NAME	27	Incongruent	zielony	green	żółty	yellow	hit	n/a
285.905	n/a	RESPONSE	n/a	n/a	n/a	n/a	n/a	n/a	n/a	green
285.9124	1.0	ITI	n/a	n/a	n/a	n/a	n/a	n/a	n/a	n/a
286.9124	0.5	FIXCROSS	n/a	n/a	n/a	n/a	n/a	n/a	n/a	n/a
287.4124	0.5833	COLOR_NAME	28	Incongruent	czerwony	red	zielony	green	hit	n/a
287.9821	n/a	RESPONSE	n/a	n/a	n/a	n/a	n/a	n/a	n/a	red
287.9957	1.0	ITI	n/a	n/a	n/a	n/a	n/a	n/a	n/a	n/a
288.9957	0.5	FIXCROSS	n/a	n/a	n/a	n/a	n/a	n/a	n/a	n/a
289.4957	0.4667	COLOR_NAME	29	Incongruent	niebieski	blue	żółty	yellow	hit	n/a
289.9476	n/a	RESPONSE	n/a	n/a	n/a	n/a	n/a	n/a	n/a	blue
289.9624	1.0	ITI	n/a	n/a	n/a	n/a	n/a	n/a	n/a	n/a
290.9623	0.5	FIXCROSS	n/a	n/a	n/a	n/a	n/a	n/a	n/a	n/a
291.4623	0.4333	COLOR_NAME	30	Incongruent	niebieski	blue	żółty	yellow	hit	n/a
291.8809	n/a	RESPONSE	n/a	n/a	n/a	n/a	n/a	n/a	n/a	blue
291.8957	1.0	ITI	n/a	n/a	n/a	n/a	n/a	n/a	n/a	n/a
292.8956	0.5	FIXCROSS	n/a	n/a	n/a	n/a	n/a	n/a	n/a	n/a
293.3956	0.5333	COLOR_NAME	31	Neutral	zielony	green	Neutral	Neutral	hit	n/a
293.9101	n/a	RESPONSE	n/a	n/a	n/a	n/a	n/a	n/a	n/a	green
293.9289	1.0	ITI	n/a	n/a	n/a	n/a	n/a	n/a	n/a	n/a
294.9289	0.5	FIXCROSS	n/a	n/a	n/a	n/a	n/a	n/a	n/a	n/a
295.4289	0.4	COLOR_NAME	32	Incongruent	czerwony	red	żółty	yellow	hit	n/a
295.8116	n/a	RESPONSE	n/a	n/a	n/a	n/a	n/a	n/a	n/a	red
295.8289	1.0	ITI	n/a	n/a	n/a	n/a	n/a	n/a	n/a	n/a
296.8289	0.5	FIXCROSS	n/a	n/a	n/a	n/a	n/a	n/a	n/a	n/a
297.3289	0.8833	COLOR_NAME	33	Incongruent	zielony	green	czerwony	red	hit	n/a
298.2084	n/a	RESPONSE	n/a	n/a	n/a	n/a	n/a	n/a	n/a	green
298.2122	1.0	ITI	n/a	n/a	n/a	n/a	n/a	n/a	n/a	n/a
299.2122	0.5	FIXCROSS	n/a	n/a	n/a	n/a	n/a	n/a	n/a	n/a
299.7122	0.5833	COLOR_NAME	34	Incongruent	zielony	green	czerwony	red	hit	n/a
300.2855	n/a	RESPONSE	n/a	n/a	n/a	n/a	n/a	n/a	n/a	green
300.2955	1.0	ITI	n/a	n/a	n/a	n/a	n/a	n/a	n/a	n/a
301.2955	0.5	FIXCROSS	n/a	n/a	n/a	n/a	n/a	n/a	n/a	n/a
301.7955	0.6	COLOR_NAME	35	Neutral	czerwony	red	Neutral	Neutral	hit	n/a
302.3787	n/a	RESPONSE	n/a	n/a	n/a	n/a	n/a	n/a	n/a	red
302.3954	1.0	ITI	n/a	n/a	n/a	n/a	n/a	n/a	n/a	n/a
303.3954	0.5	FIXCROSS	n/a	n/a	n/a	n/a	n/a	n/a	n/a	n/a
303.8954	0.5167	COLOR_NAME	36	Neutral	czerwony	red	Neutral	Neutral	hit	n/a
304.4079	n/a	RESPONSE	n/a	n/a	n/a	n/a	n/a	n/a	n/a	red
304.4121	1.0	ITI	n/a	n/a	n/a	n/a	n/a	n/a	n/a	n/a
305.4121	0.5	FIXCROSS	n/a	n/a	n/a	n/a	n/a	n/a	n/a	n/a
305.9121	0.7	COLOR_NAME	37	Incongruent	żółty	yellow	czerwony	red	hit	n/a
306.5971	n/a	RESPONSE	n/a	n/a	n/a	n/a	n/a	n/a	n/a	yellow
306.612	1.0	ITI	n/a	n/a	n/a	n/a	n/a	n/a	n/a	n/a
307.612	0.5	FIXCROSS	n/a	n/a	n/a	n/a	n/a	n/a	n/a	n/a
308.112	0.7166	COLOR_NAME	38	Neutral	niebieski	blue	Neutral	Neutral	hit	n/a
308.8182	n/a	RESPONSE	n/a	n/a	n/a	n/a	n/a	n/a	n/a	blue
308.8287	1.0	ITI	n/a	n/a	n/a	n/a	n/a	n/a	n/a	n/a
309.8286	0.5	FIXCROSS	n/a	n/a	n/a	n/a	n/a	n/a	n/a	n/a
310.3286	0.5833	COLOR_NAME	39	Neutral	czerwony	red	Neutral	Neutral	hit	n/a
310.8953	n/a	RESPONSE	n/a	n/a	n/a	n/a	n/a	n/a	n/a	red
310.912	1.0	ITI	n/a	n/a	n/a	n/a	n/a	n/a	n/a	n/a
311.9119	0.5	FIXCROSS	n/a	n/a	n/a	n/a	n/a	n/a	n/a	n/a
312.4119	0.6167	COLOR_NAME	40	Neutral	żółty	yellow	Neutral	Neutral	hit	n/a
313.0204	n/a	RESPONSE	n/a	n/a	n/a	n/a	n/a	n/a	n/a	yellow
313.0286	1.0	ITI	n/a	n/a	n/a	n/a	n/a	n/a	n/a	n/a
314.0286	0.5	FIXCROSS	n/a	n/a	n/a	n/a	n/a	n/a	n/a	n/a
314.5286	0.7	COLOR_NAME	41	Incongruent	niebieski	blue	żółty	yellow	incorrect	n/a
315.2093	n/a	RESPONSE	n/a	n/a	n/a	n/a	n/a	n/a	n/a	green
315.2285	1.0	ITI	n/a	n/a	n/a	n/a	n/a	n/a	n/a	n/a
316.2285	0.5	FIXCROSS	n/a	n/a	n/a	n/a	n/a	n/a	n/a	n/a
316.7285	0.45	COLOR_NAME	42	Incongruent	czerwony	red	niebieski	blue	incorrect	n/a
317.1747	n/a	RESPONSE	n/a	n/a	n/a	n/a	n/a	n/a	n/a	blue
317.1785	1.0	ITI	n/a	n/a	n/a	n/a	n/a	n/a	n/a	n/a
318.1785	0.5	FIXCROSS	n/a	n/a	n/a	n/a	n/a	n/a	n/a	n/a
318.6785	1.1833	COLOR_NAME	43	Neutral	czerwony	red	Neutral	Neutral	hit	n/a
319.8432	n/a	RESPONSE	n/a	n/a	n/a	n/a	n/a	n/a	n/a	red
319.8618	1.0	ITI	n/a	n/a	n/a	n/a	n/a	n/a	n/a	n/a
320.8618	0.5	FIXCROSS	n/a	n/a	n/a	n/a	n/a	n/a	n/a	n/a
321.3618	0.8333	COLOR_NAME	44	Neutral	niebieski	blue	Neutral	Neutral	hit	n/a
322.176	n/a	RESPONSE	n/a	n/a	n/a	n/a	n/a	n/a	n/a	blue
322.1951	1.0	ITI	n/a	n/a	n/a	n/a	n/a	n/a	n/a	n/a
323.1951	0.5	FIXCROSS	n/a	n/a	n/a	n/a	n/a	n/a	n/a	n/a
323.695	0.7	COLOR_NAME	45	Neutral	zielony	green	Neutral	Neutral	hit	n/a
324.381	n/a	RESPONSE	n/a	n/a	n/a	n/a	n/a	n/a	n/a	green
324.395	1.0	ITI	n/a	n/a	n/a	n/a	n/a	n/a	n/a	n/a
325.395	0.5	FIXCROSS	n/a	n/a	n/a	n/a	n/a	n/a	n/a	n/a
325.895	0.6333	COLOR_NAME	46	Neutral	żółty	yellow	Neutral	Neutral	hit	n/a
326.5221	n/a	RESPONSE	n/a	n/a	n/a	n/a	n/a	n/a	n/a	yellow
326.5283	1.0	ITI	n/a	n/a	n/a	n/a	n/a	n/a	n/a	n/a
327.5283	0.5	FIXCROSS	n/a	n/a	n/a	n/a	n/a	n/a	n/a	n/a
328.0283	1.0	COLOR_NAME	47	Neutral	zielony	green	Neutral	Neutral	hit	n/a
329.0148	n/a	RESPONSE	n/a	n/a	n/a	n/a	n/a	n/a	n/a	green
329.0283	1.0	ITI	n/a	n/a	n/a	n/a	n/a	n/a	n/a	n/a
330.0283	0.5	FIXCROSS	n/a	n/a	n/a	n/a	n/a	n/a	n/a	n/a
330.5283	0.4833	COLOR_NAME	48	Neutral	zielony	green	Neutral	Neutral	hit	n/a
330.9961	n/a	RESPONSE	n/a	n/a	n/a	n/a	n/a	n/a	n/a	green
331.0116	1.0	ITI	n/a	n/a	n/a	n/a	n/a	n/a	n/a	n/a
332.0116	0.5	FIXCROSS	n/a	n/a	n/a	n/a	n/a	n/a	n/a	n/a
332.5115	0.7833	COLOR_NAME	49	Neutral	żółty	yellow	Neutral	Neutral	hit	n/a
333.281	n/a	RESPONSE	n/a	n/a	n/a	n/a	n/a	n/a	n/a	yellow
333.2949	1.0	ITI	n/a	n/a	n/a	n/a	n/a	n/a	n/a	n/a
334.2948	0.5	FIXCROSS	n/a	n/a	n/a	n/a	n/a	n/a	n/a	n/a
334.7948	0.5666	COLOR_NAME	50	Incongruent	żółty	yellow	czerwony	red	hit	n/a
335.3582	n/a	RESPONSE	n/a	n/a	n/a	n/a	n/a	n/a	n/a	yellow
335.3615	1.0	ITI	n/a	n/a	n/a	n/a	n/a	n/a	n/a	n/a
336.3615	0.5	FIXCROSS	n/a	n/a	n/a	n/a	n/a	n/a	n/a	n/a
336.8615	0.95	COLOR_NAME	51	Incongruent	niebieski	blue	czerwony	red	hit	n/a
337.8029	n/a	RESPONSE	n/a	n/a	n/a	n/a	n/a	n/a	n/a	blue
337.8114	1.0	ITI	n/a	n/a	n/a	n/a	n/a	n/a	n/a	n/a
338.8114	0.5	FIXCROSS	n/a	n/a	n/a	n/a	n/a	n/a	n/a	n/a
339.3114	0.4667	COLOR_NAME	52	Incongruent	niebieski	blue	czerwony	red	hit	n/a
339.7681	n/a	RESPONSE	n/a	n/a	n/a	n/a	n/a	n/a	n/a	blue
339.7781	1.0	ITI	n/a	n/a	n/a	n/a	n/a	n/a	n/a	n/a
340.7781	0.5	FIXCROSS	n/a	n/a	n/a	n/a	n/a	n/a	n/a	n/a
341.278	0.5167	COLOR_NAME	53	Neutral	czerwony	red	Neutral	Neutral	hit	n/a
341.7815	n/a	RESPONSE	n/a	n/a	n/a	n/a	n/a	n/a	n/a	red
341.7947	1.0	ITI	n/a	n/a	n/a	n/a	n/a	n/a	n/a	n/a
342.7947	0.5	FIXCROSS	n/a	n/a	n/a	n/a	n/a	n/a	n/a	n/a
343.2947	0.6166	COLOR_NAME	54	Incongruent	czerwony	red	żółty	yellow	hit	n/a
343.9066	n/a	RESPONSE	n/a	n/a	n/a	n/a	n/a	n/a	n/a	red
343.9113	1.0	ITI	n/a	n/a	n/a	n/a	n/a	n/a	n/a	n/a
344.9113	0.5	FIXCROSS	n/a	n/a	n/a	n/a	n/a	n/a	n/a	n/a
345.4113	0.85	COLOR_NAME	55	Incongruent	zielony	green	niebieski	blue	hit	n/a
346.2554	n/a	RESPONSE	n/a	n/a	n/a	n/a	n/a	n/a	n/a	green
346.2613	1.0	ITI	n/a	n/a	n/a	n/a	n/a	n/a	n/a	n/a
347.2613	0.5	FIXCROSS	n/a	n/a	n/a	n/a	n/a	n/a	n/a	n/a
347.7613	1.0333	COLOR_NAME	56	Incongruent	czerwony	red	żółty	yellow	hit	n/a
348.7798	n/a	RESPONSE	n/a	n/a	n/a	n/a	n/a	n/a	n/a	red
348.7946	1.0	ITI	n/a	n/a	n/a	n/a	n/a	n/a	n/a	n/a
349.7945	0.5	FIXCROSS	n/a	n/a	n/a	n/a	n/a	n/a	n/a	n/a
350.2945	0.55	COLOR_NAME	57	Neutral	żółty	yellow	Neutral	Neutral	hit	n/a
350.8411	n/a	RESPONSE	n/a	n/a	n/a	n/a	n/a	n/a	n/a	yellow
350.8445	1.0	ITI	n/a	n/a	n/a	n/a	n/a	n/a	n/a	n/a
351.8445	0.5	FIXCROSS	n/a	n/a	n/a	n/a	n/a	n/a	n/a	n/a
352.3445	0.5167	COLOR_NAME	58	Neutral	niebieski	blue	Neutral	Neutral	hit	n/a
352.8543	n/a	RESPONSE	n/a	n/a	n/a	n/a	n/a	n/a	n/a	blue
352.8612	1.0	ITI	n/a	n/a	n/a	n/a	n/a	n/a	n/a	n/a
353.8611	0.5	FIXCROSS	n/a	n/a	n/a	n/a	n/a	n/a	n/a	n/a
354.3611	0.5167	COLOR_NAME	59	Neutral	niebieski	blue	Neutral	Neutral	hit	n/a
354.8676	n/a	RESPONSE	n/a	n/a	n/a	n/a	n/a	n/a	n/a	blue
354.8778	1.0	ITI	n/a	n/a	n/a	n/a	n/a	n/a	n/a	n/a
355.8778	0.5	FIXCROSS	n/a	n/a	n/a	n/a	n/a	n/a	n/a	n/a
356.3778	0.55	COLOR_NAME	60	Neutral	czerwony	red	Neutral	Neutral	hit	n/a
356.9128	n/a	RESPONSE	n/a	n/a	n/a	n/a	n/a	n/a	n/a	red
356.9277	1.0	ITI	n/a	n/a	n/a	n/a	n/a	n/a	n/a	n/a
357.9277	0.5	FIXCROSS	n/a	n/a	n/a	n/a	n/a	n/a	n/a	n/a
358.4277	0.6666	COLOR_NAME	61	Neutral	żółty	yellow	Neutral	Neutral	hit	n/a
359.0859	n/a	RESPONSE	n/a	n/a	n/a	n/a	n/a	n/a	n/a	yellow
359.0944	1.0	ITI	n/a	n/a	n/a	n/a	n/a	n/a	n/a	n/a
360.0944	0.5	FIXCROSS	n/a	n/a	n/a	n/a	n/a	n/a	n/a	n/a
360.5944	0.45	COLOR_NAME	62	Incongruent	żółty	yellow	niebieski	blue	hit	n/a
361.0352	n/a	RESPONSE	n/a	n/a	n/a	n/a	n/a	n/a	n/a	yellow
361.0443	1.0	ITI	n/a	n/a	n/a	n/a	n/a	n/a	n/a	n/a
362.0443	0.5	FIXCROSS	n/a	n/a	n/a	n/a	n/a	n/a	n/a	n/a
362.5443	0.5167	COLOR_NAME	63	Neutral	żółty	yellow	Neutral	Neutral	hit	n/a
363.0485	n/a	RESPONSE	n/a	n/a	n/a	n/a	n/a	n/a	n/a	yellow
363.061	1.0	ITI	n/a	n/a	n/a	n/a	n/a	n/a	n/a	n/a
364.0609	0.5	FIXCROSS	n/a	n/a	n/a	n/a	n/a	n/a	n/a	n/a
364.5609	1.0833	COLOR_NAME	64	Incongruent	zielony	green	niebieski	blue	hit	n/a
365.637	n/a	RESPONSE	n/a	n/a	n/a	n/a	n/a	n/a	n/a	green
365.6443	1.0	ITI	n/a	n/a	n/a	n/a	n/a	n/a	n/a	n/a
366.6442	0.5	FIXCROSS	n/a	n/a	n/a	n/a	n/a	n/a	n/a	n/a
367.1442	0.7333	COLOR_NAME	65	Neutral	żółty	yellow	Neutral	Neutral	hit	n/a
367.874	n/a	RESPONSE	n/a	n/a	n/a	n/a	n/a	n/a	n/a	yellow
367.8775	1.0	ITI	n/a	n/a	n/a	n/a	n/a	n/a	n/a	n/a
368.8775	0.5	FIXCROSS	n/a	n/a	n/a	n/a	n/a	n/a	n/a	n/a
369.3775	0.85	COLOR_NAME	66	Neutral	zielony	green	Neutral	Neutral	hit	n/a
370.2228	n/a	RESPONSE	n/a	n/a	n/a	n/a	n/a	n/a	n/a	green
370.2275	1.0	ITI	n/a	n/a	n/a	n/a	n/a	n/a	n/a	n/a
371.2275	0.5	FIXCROSS	n/a	n/a	n/a	n/a	n/a	n/a	n/a	n/a
371.7275	0.55	COLOR_NAME	67	Neutral	niebieski	blue	Neutral	Neutral	hit	n/a
372.2682	n/a	RESPONSE	n/a	n/a	n/a	n/a	n/a	n/a	n/a	blue
372.2775	1.0	ITI	n/a	n/a	n/a	n/a	n/a	n/a	n/a	n/a
373.2774	0.5	FIXCROSS	n/a	n/a	n/a	n/a	n/a	n/a	n/a	n/a
373.7774	1.6333	COLOR_NAME	68	Incongruent	żółty	yellow	zielony	green	hit	n/a
375.3999	n/a	RESPONSE	n/a	n/a	n/a	n/a	n/a	n/a	n/a	yellow
375.4107	1.0	ITI	n/a	n/a	n/a	n/a	n/a	n/a	n/a	n/a
376.4107	0.5	FIXCROSS	n/a	n/a	n/a	n/a	n/a	n/a	n/a	n/a
376.9107	0.8166	COLOR_NAME	69	Neutral	niebieski	blue	Neutral	Neutral	incorrect	n/a
377.7167	n/a	RESPONSE	n/a	n/a	n/a	n/a	n/a	n/a	n/a	red
377.7273	1.0	ITI	n/a	n/a	n/a	n/a	n/a	n/a	n/a	n/a
378.7273	0.5	FIXCROSS	n/a	n/a	n/a	n/a	n/a	n/a	n/a	n/a
379.2273	0.7167	COLOR_NAME	70	Incongruent	zielony	green	niebieski	blue	hit	n/a
379.9379	n/a	RESPONSE	n/a	n/a	n/a	n/a	n/a	n/a	n/a	green
379.944	1.0	ITI	n/a	n/a	n/a	n/a	n/a	n/a	n/a	n/a
380.944	0.5	FIXCROSS	n/a	n/a	n/a	n/a	n/a	n/a	n/a	n/a
381.444	0.7	COLOR_NAME	71	Neutral	czerwony	red	Neutral	Neutral	hit	n/a
382.127	n/a	RESPONSE	n/a	n/a	n/a	n/a	n/a	n/a	n/a	red
382.1439	1.0	ITI	n/a	n/a	n/a	n/a	n/a	n/a	n/a	n/a
383.1439	0.5	FIXCROSS	n/a	n/a	n/a	n/a	n/a	n/a	n/a	n/a
383.6439	0.55	COLOR_NAME	72	Neutral	żółty	yellow	Neutral	Neutral	hit	n/a
384.1882	n/a	RESPONSE	n/a	n/a	n/a	n/a	n/a	n/a	n/a	yellow
384.1939	1.0	ITI	n/a	n/a	n/a	n/a	n/a	n/a	n/a	n/a
387.3999	n/a	RESPONSE	n/a	n/a	n/a	n/a	n/a	n/a	n/a	n/a
