onset	duration	trial_type	trial_number	stroop_condition	stim_text(PL)	stim_text(eng)	stim_color(PL)	stim_color(eng)	response_type	response_color
0.0	n/a	RESPONSE	n/a	n/a	n/a	n/a	n/a	n/a	n/a	n/a
0.0603	1.0334	ITI	n/a	n/a	n/a	n/a	n/a	n/a	n/a	n/a
1.0937	0.5167	FIXCROSS	n/a	n/a	n/a	n/a	n/a	n/a	n/a	n/a
1.6104	1.7333	T_INK	1	Neutral	xxxxxxx	xxxxxxx	czerwony	red	hit	n/a
3.3205	n/a	RESPONSE	n/a	n/a	n/a	n/a	n/a	n/a	n/a	red
3.3437	0.5167	FEEDBACK	n/a	n/a	n/a	n/a	n/a	n/a	n/a	n/a
3.8604	1.0167	ITI	n/a	n/a	n/a	n/a	n/a	n/a	n/a	n/a
4.8771	0.5167	FIXCROSS	n/a	n/a	n/a	n/a	n/a	n/a	n/a	n/a
5.3938	0.9166	T_INK	2	Neutral	xxxxxxxxx	xxxxxxxxx	żółty	yellow	hit	n/a
6.274	n/a	RESPONSE	n/a	n/a	n/a	n/a	n/a	n/a	n/a	yellow
6.3104	0.5167	FEEDBACK	n/a	n/a	n/a	n/a	n/a	n/a	n/a	n/a
6.8271	1.0167	ITI	n/a	n/a	n/a	n/a	n/a	n/a	n/a	n/a
7.8438	0.5167	FIXCROSS	n/a	n/a	n/a	n/a	n/a	n/a	n/a	n/a
8.3604	1.05	T_INK	3	Incongruent	niebieski	blue	czerwony	red	hit	n/a
9.371	n/a	RESPONSE	n/a	n/a	n/a	n/a	n/a	n/a	n/a	red
9.4104	0.5167	FEEDBACK	n/a	n/a	n/a	n/a	n/a	n/a	n/a	n/a
9.9271	1.0333	ITI	n/a	n/a	n/a	n/a	n/a	n/a	n/a	n/a
10.9605	0.5167	FIXCROSS	n/a	n/a	n/a	n/a	n/a	n/a	n/a	n/a
11.4771	0.9667	T_INK	4	Incongruent	żółty	yellow	zielony	green	hit	n/a
12.4201	n/a	RESPONSE	n/a	n/a	n/a	n/a	n/a	n/a	n/a	green
12.4438	0.5167	FEEDBACK	n/a	n/a	n/a	n/a	n/a	n/a	n/a	n/a
12.9605	1.0167	ITI	n/a	n/a	n/a	n/a	n/a	n/a	n/a	n/a
13.9772	0.5167	FIXCROSS	n/a	n/a	n/a	n/a	n/a	n/a	n/a	n/a
14.4938	0.7667	T_INK	5	Neutral	xxxxxxxx	xxxxxxxx	żółty	yellow	hit	n/a
15.2298	n/a	RESPONSE	n/a	n/a	n/a	n/a	n/a	n/a	n/a	yellow
15.2605	0.5167	FEEDBACK	n/a	n/a	n/a	n/a	n/a	n/a	n/a	n/a
15.7772	1.0167	ITI	n/a	n/a	n/a	n/a	n/a	n/a	n/a	n/a
16.7938	0.5167	FIXCROSS	n/a	n/a	n/a	n/a	n/a	n/a	n/a	n/a
17.3105	0.5833	T_INK	6	Neutral	xxxxxxx	xxxxxxx	żółty	yellow	hit	n/a
17.8639	n/a	RESPONSE	n/a	n/a	n/a	n/a	n/a	n/a	n/a	yellow
17.8938	0.5167	FEEDBACK	n/a	n/a	n/a	n/a	n/a	n/a	n/a	n/a
18.4105	1.0167	ITI	n/a	n/a	n/a	n/a	n/a	n/a	n/a	n/a
19.4272	0.5166	FIXCROSS	n/a	n/a	n/a	n/a	n/a	n/a	n/a	n/a
19.9438	0.6	T_INK	7	Incongruent	zielony	green	żółty	yellow	hit	n/a
20.514	n/a	RESPONSE	n/a	n/a	n/a	n/a	n/a	n/a	n/a	yellow
20.5439	0.5166	FEEDBACK	n/a	n/a	n/a	n/a	n/a	n/a	n/a	n/a
21.0605	1.0167	ITI	n/a	n/a	n/a	n/a	n/a	n/a	n/a	n/a
22.0772	0.5167	FIXCROSS	n/a	n/a	n/a	n/a	n/a	n/a	n/a	n/a
22.5939	0.9	T_INK	8	Incongruent	czerwony	red	niebieski	blue	hit	n/a
23.4675	n/a	RESPONSE	n/a	n/a	n/a	n/a	n/a	n/a	n/a	blue
23.4939	0.5167	FEEDBACK	n/a	n/a	n/a	n/a	n/a	n/a	n/a	n/a
24.0106	1.0166	ITI	n/a	n/a	n/a	n/a	n/a	n/a	n/a	n/a
25.0272	0.5167	FIXCROSS	n/a	n/a	n/a	n/a	n/a	n/a	n/a	n/a
25.5439	0.7333	T_INK	9	Neutral	xxxxx	xxxxx	niebieski	blue	hit	n/a
26.2452	n/a	RESPONSE	n/a	n/a	n/a	n/a	n/a	n/a	n/a	blue
26.2772	0.5166	FEEDBACK	n/a	n/a	n/a	n/a	n/a	n/a	n/a	n/a
26.7939	1.0167	ITI	n/a	n/a	n/a	n/a	n/a	n/a	n/a	n/a
27.8106	0.5167	FIXCROSS	n/a	n/a	n/a	n/a	n/a	n/a	n/a	n/a
28.3273	0.8	T_INK	10	Incongruent	niebieski	blue	żółty	yellow	hit	n/a
29.1029	n/a	RESPONSE	n/a	n/a	n/a	n/a	n/a	n/a	n/a	yellow
29.1273	0.5166	FEEDBACK	n/a	n/a	n/a	n/a	n/a	n/a	n/a	n/a
29.6439	1.0167	ITI	n/a	n/a	n/a	n/a	n/a	n/a	n/a	n/a
30.6606	0.5167	FIXCROSS	n/a	n/a	n/a	n/a	n/a	n/a	n/a	n/a
31.1773	1.1	T_INK	11	Incongruent	żółty	yellow	niebieski	blue	hit	n/a
32.2478	n/a	RESPONSE	n/a	n/a	n/a	n/a	n/a	n/a	n/a	blue
32.2773	0.5167	FEEDBACK	n/a	n/a	n/a	n/a	n/a	n/a	n/a	n/a
32.794	1.0166	ITI	n/a	n/a	n/a	n/a	n/a	n/a	n/a	n/a
33.8106	0.5167	FIXCROSS	n/a	n/a	n/a	n/a	n/a	n/a	n/a	n/a
34.3273	0.7666	T_INK	12	Neutral	xxxxxxxxx	xxxxxxxxx	czerwony	red	hit	n/a
35.0736	n/a	RESPONSE	n/a	n/a	n/a	n/a	n/a	n/a	n/a	red
35.0939	0.5167	FEEDBACK	n/a	n/a	n/a	n/a	n/a	n/a	n/a	n/a
35.6106	1.0333	ITI	n/a	n/a	n/a	n/a	n/a	n/a	n/a	n/a
48.7708	n/a	RESPONSE	n/a	n/a	n/a	n/a	n/a	n/a	n/a	n/a
48.8274	1.0167	ITI	n/a	n/a	n/a	n/a	n/a	n/a	n/a	n/a
49.8441	0.5166	FIXCROSS	n/a	n/a	n/a	n/a	n/a	n/a	n/a	n/a
50.3607	1.05	INK	1	Neutral	xxxxx	xxxxx	zielony	green	hit	n/a
51.389	n/a	RESPONSE	n/a	n/a	n/a	n/a	n/a	n/a	n/a	green
51.4108	1.0167	ITI	n/a	n/a	n/a	n/a	n/a	n/a	n/a	n/a
52.4274	0.5167	FIXCROSS	n/a	n/a	n/a	n/a	n/a	n/a	n/a	n/a
52.9441	0.95	INK	2	Neutral	xxxxxxxxx	xxxxxxxxx	zielony	green	hit	n/a
53.8635	n/a	RESPONSE	n/a	n/a	n/a	n/a	n/a	n/a	n/a	green
53.8941	1.0167	ITI	n/a	n/a	n/a	n/a	n/a	n/a	n/a	n/a
54.9108	0.5166	FIXCROSS	n/a	n/a	n/a	n/a	n/a	n/a	n/a	n/a
55.4274	0.8167	INK	3	Neutral	xxxxx	xxxxx	niebieski	blue	hit	n/a
56.2103	n/a	RESPONSE	n/a	n/a	n/a	n/a	n/a	n/a	n/a	blue
56.2441	1.0167	ITI	n/a	n/a	n/a	n/a	n/a	n/a	n/a	n/a
57.2608	0.5167	FIXCROSS	n/a	n/a	n/a	n/a	n/a	n/a	n/a	n/a
57.7775	1.1667	INK	4	Incongruent	żółty	yellow	zielony	green	hit	n/a
58.9242	n/a	RESPONSE	n/a	n/a	n/a	n/a	n/a	n/a	n/a	green
58.9442	1.0167	ITI	n/a	n/a	n/a	n/a	n/a	n/a	n/a	n/a
59.9608	0.5167	FIXCROSS	n/a	n/a	n/a	n/a	n/a	n/a	n/a	n/a
60.4775	1.0667	INK	5	Neutral	xxxxxxxxx	xxxxxxxxx	czerwony	red	hit	n/a
61.5104	n/a	RESPONSE	n/a	n/a	n/a	n/a	n/a	n/a	n/a	red
61.5442	1.0166	ITI	n/a	n/a	n/a	n/a	n/a	n/a	n/a	n/a
62.5608	0.5167	FIXCROSS	n/a	n/a	n/a	n/a	n/a	n/a	n/a	n/a
63.0775	0.6	INK	6	Incongruent	żółty	yellow	czerwony	red	hit	n/a
63.6496	n/a	RESPONSE	n/a	n/a	n/a	n/a	n/a	n/a	n/a	red
63.6775	1.0167	ITI	n/a	n/a	n/a	n/a	n/a	n/a	n/a	n/a
64.6942	0.5167	FIXCROSS	n/a	n/a	n/a	n/a	n/a	n/a	n/a	n/a
65.2109	0.55	INK	7	Neutral	xxxxxxx	xxxxxxx	czerwony	red	hit	n/a
65.741	n/a	RESPONSE	n/a	n/a	n/a	n/a	n/a	n/a	n/a	red
65.7608	1.0167	ITI	n/a	n/a	n/a	n/a	n/a	n/a	n/a	n/a
66.7775	0.5167	FIXCROSS	n/a	n/a	n/a	n/a	n/a	n/a	n/a	n/a
67.2942	0.8333	INK	8	Neutral	xxxxx	xxxxx	niebieski	blue	hit	n/a
68.1037	n/a	RESPONSE	n/a	n/a	n/a	n/a	n/a	n/a	n/a	blue
68.1276	1.0167	ITI	n/a	n/a	n/a	n/a	n/a	n/a	n/a	n/a
69.1442	0.5167	FIXCROSS	n/a	n/a	n/a	n/a	n/a	n/a	n/a	n/a
69.6609	0.7667	INK	9	Incongruent	żółty	yellow	czerwony	red	hit	n/a
70.4026	n/a	RESPONSE	n/a	n/a	n/a	n/a	n/a	n/a	n/a	red
70.4276	1.0167	ITI	n/a	n/a	n/a	n/a	n/a	n/a	n/a	n/a
71.4443	0.5167	FIXCROSS	n/a	n/a	n/a	n/a	n/a	n/a	n/a	n/a
71.9609	0.8333	INK	10	Incongruent	czerwony	red	zielony	green	hit	n/a
72.7652	n/a	RESPONSE	n/a	n/a	n/a	n/a	n/a	n/a	n/a	green
72.7943	1.0167	ITI	n/a	n/a	n/a	n/a	n/a	n/a	n/a	n/a
73.8109	0.5167	FIXCROSS	n/a	n/a	n/a	n/a	n/a	n/a	n/a	n/a
74.3276	0.7333	INK	11	Incongruent	czerwony	red	żółty	yellow	incorrect	n/a
75.0322	n/a	RESPONSE	n/a	n/a	n/a	n/a	n/a	n/a	n/a	blue
75.0609	1.0167	ITI	n/a	n/a	n/a	n/a	n/a	n/a	n/a	n/a
76.0776	0.5167	FIXCROSS	n/a	n/a	n/a	n/a	n/a	n/a	n/a	n/a
76.5943	0.7	INK	12	Neutral	xxxxxxxx	xxxxxxxx	żółty	yellow	hit	n/a
77.2672	n/a	RESPONSE	n/a	n/a	n/a	n/a	n/a	n/a	n/a	yellow
77.2943	1.0167	ITI	n/a	n/a	n/a	n/a	n/a	n/a	n/a	n/a
78.311	0.5167	FIXCROSS	n/a	n/a	n/a	n/a	n/a	n/a	n/a	n/a
78.8276	0.4833	INK	13	Neutral	xxxxxxxxx	xxxxxxxxx	żółty	yellow	hit	n/a
79.2788	n/a	RESPONSE	n/a	n/a	n/a	n/a	n/a	n/a	n/a	yellow
79.311	1.0166	ITI	n/a	n/a	n/a	n/a	n/a	n/a	n/a	n/a
80.3276	0.5167	FIXCROSS	n/a	n/a	n/a	n/a	n/a	n/a	n/a	n/a
80.8443	1.7667	INK	14	Neutral	xxxxx	xxxxx	zielony	green	hit	n/a
82.5834	n/a	RESPONSE	n/a	n/a	n/a	n/a	n/a	n/a	n/a	green
82.611	1.0167	ITI	n/a	n/a	n/a	n/a	n/a	n/a	n/a	n/a
83.6277	0.5167	FIXCROSS	n/a	n/a	n/a	n/a	n/a	n/a	n/a	n/a
84.1443	0.6667	INK	15	Neutral	xxxxxxxx	xxxxxxxx	żółty	yellow	hit	n/a
84.7865	n/a	RESPONSE	n/a	n/a	n/a	n/a	n/a	n/a	n/a	yellow
84.811	1.0166	ITI	n/a	n/a	n/a	n/a	n/a	n/a	n/a	n/a
85.8277	0.5167	FIXCROSS	n/a	n/a	n/a	n/a	n/a	n/a	n/a	n/a
86.3443	0.6834	INK	16	Neutral	xxxxx	xxxxx	czerwony	red	hit	n/a
87.0055	n/a	RESPONSE	n/a	n/a	n/a	n/a	n/a	n/a	n/a	red
87.0277	1.0167	ITI	n/a	n/a	n/a	n/a	n/a	n/a	n/a	n/a
88.0444	0.5167	FIXCROSS	n/a	n/a	n/a	n/a	n/a	n/a	n/a	n/a
88.561	0.8833	INK	17	Incongruent	zielony	green	żółty	yellow	hit	n/a
89.4161	n/a	RESPONSE	n/a	n/a	n/a	n/a	n/a	n/a	n/a	yellow
89.4444	1.0167	ITI	n/a	n/a	n/a	n/a	n/a	n/a	n/a	n/a
90.4611	0.5167	FIXCROSS	n/a	n/a	n/a	n/a	n/a	n/a	n/a	n/a
90.9777	0.95	INK	18	Incongruent	czerwony	red	zielony	green	hit	n/a
91.9065	n/a	RESPONSE	n/a	n/a	n/a	n/a	n/a	n/a	n/a	green
91.9277	1.0167	ITI	n/a	n/a	n/a	n/a	n/a	n/a	n/a	n/a
92.9444	0.5167	FIXCROSS	n/a	n/a	n/a	n/a	n/a	n/a	n/a	n/a
93.4611	0.75	INK	19	Incongruent	czerwony	red	niebieski	blue	hit	n/a
94.1895	n/a	RESPONSE	n/a	n/a	n/a	n/a	n/a	n/a	n/a	blue
94.2111	1.0167	ITI	n/a	n/a	n/a	n/a	n/a	n/a	n/a	n/a
95.2278	0.5167	FIXCROSS	n/a	n/a	n/a	n/a	n/a	n/a	n/a	n/a
95.7444	0.6667	INK	20	Neutral	xxxxxxxxx	xxxxxxxxx	żółty	yellow	hit	n/a
96.3926	n/a	RESPONSE	n/a	n/a	n/a	n/a	n/a	n/a	n/a	yellow
96.4111	1.0167	ITI	n/a	n/a	n/a	n/a	n/a	n/a	n/a	n/a
97.4278	0.5167	FIXCROSS	n/a	n/a	n/a	n/a	n/a	n/a	n/a	n/a
97.9445	1.1667	INK	21	Neutral	xxxxxxxx	xxxxxxxx	niebieski	blue	hit	n/a
99.0906	n/a	RESPONSE	n/a	n/a	n/a	n/a	n/a	n/a	n/a	blue
99.1111	1.0167	ITI	n/a	n/a	n/a	n/a	n/a	n/a	n/a	n/a
100.1278	0.5166	FIXCROSS	n/a	n/a	n/a	n/a	n/a	n/a	n/a	n/a
100.6444	0.6667	INK	22	Incongruent	zielony	green	niebieski	blue	hit	n/a
101.2777	n/a	RESPONSE	n/a	n/a	n/a	n/a	n/a	n/a	n/a	blue
101.3111	1.0167	ITI	n/a	n/a	n/a	n/a	n/a	n/a	n/a	n/a
102.3278	0.5167	FIXCROSS	n/a	n/a	n/a	n/a	n/a	n/a	n/a	n/a
102.8445	0.55	INK	23	Incongruent	zielony	green	żółty	yellow	hit	n/a
103.369	n/a	RESPONSE	n/a	n/a	n/a	n/a	n/a	n/a	n/a	yellow
103.3945	1.0167	ITI	n/a	n/a	n/a	n/a	n/a	n/a	n/a	n/a
104.4112	0.5167	FIXCROSS	n/a	n/a	n/a	n/a	n/a	n/a	n/a	n/a
104.9278	0.7333	INK	24	Incongruent	niebieski	blue	czerwony	red	hit	n/a
105.6358	n/a	RESPONSE	n/a	n/a	n/a	n/a	n/a	n/a	n/a	red
105.6612	1.0167	ITI	n/a	n/a	n/a	n/a	n/a	n/a	n/a	n/a
106.6779	0.5166	FIXCROSS	n/a	n/a	n/a	n/a	n/a	n/a	n/a	n/a
107.1945	0.5834	INK	25	Incongruent	niebieski	blue	żółty	yellow	hit	n/a
107.7591	n/a	RESPONSE	n/a	n/a	n/a	n/a	n/a	n/a	n/a	yellow
107.7779	1.0167	ITI	n/a	n/a	n/a	n/a	n/a	n/a	n/a	n/a
108.7945	0.5167	FIXCROSS	n/a	n/a	n/a	n/a	n/a	n/a	n/a	n/a
109.3112	0.7	INK	26	Incongruent	czerwony	red	zielony	green	hit	n/a
109.9782	n/a	RESPONSE	n/a	n/a	n/a	n/a	n/a	n/a	n/a	green
110.0112	1.0167	ITI	n/a	n/a	n/a	n/a	n/a	n/a	n/a	n/a
111.0279	0.5167	FIXCROSS	n/a	n/a	n/a	n/a	n/a	n/a	n/a	n/a
111.5446	0.5666	INK	27	Incongruent	zielony	green	żółty	yellow	hit	n/a
112.0854	n/a	RESPONSE	n/a	n/a	n/a	n/a	n/a	n/a	n/a	yellow
112.1112	1.0167	ITI	n/a	n/a	n/a	n/a	n/a	n/a	n/a	n/a
113.1279	0.5167	FIXCROSS	n/a	n/a	n/a	n/a	n/a	n/a	n/a	n/a
113.6446	0.9333	INK	28	Incongruent	czerwony	red	niebieski	blue	hit	n/a
114.5599	n/a	RESPONSE	n/a	n/a	n/a	n/a	n/a	n/a	n/a	blue
114.5779	1.0167	ITI	n/a	n/a	n/a	n/a	n/a	n/a	n/a	n/a
115.5946	0.5167	FIXCROSS	n/a	n/a	n/a	n/a	n/a	n/a	n/a	n/a
116.1113	0.65	INK	29	Incongruent	zielony	green	czerwony	red	hit	n/a
116.7311	n/a	RESPONSE	n/a	n/a	n/a	n/a	n/a	n/a	n/a	red
116.7612	1.0167	ITI	n/a	n/a	n/a	n/a	n/a	n/a	n/a	n/a
117.7779	0.5166	FIXCROSS	n/a	n/a	n/a	n/a	n/a	n/a	n/a	n/a
118.2946	0.9667	INK	30	Neutral	xxxxxxxx	xxxxxxxx	zielony	green	hit	n/a
119.2376	n/a	RESPONSE	n/a	n/a	n/a	n/a	n/a	n/a	n/a	green
119.2612	1.0167	ITI	n/a	n/a	n/a	n/a	n/a	n/a	n/a	n/a
120.278	0.5167	FIXCROSS	n/a	n/a	n/a	n/a	n/a	n/a	n/a	n/a
120.7946	0.6167	INK	31	Incongruent	zielony	green	niebieski	blue	hit	n/a
121.3927	n/a	RESPONSE	n/a	n/a	n/a	n/a	n/a	n/a	n/a	blue
121.4113	1.0166	ITI	n/a	n/a	n/a	n/a	n/a	n/a	n/a	n/a
122.4279	0.5167	FIXCROSS	n/a	n/a	n/a	n/a	n/a	n/a	n/a	n/a
122.9446	0.6	INK	32	Incongruent	niebieski	blue	zielony	green	hit	n/a
123.5159	n/a	RESPONSE	n/a	n/a	n/a	n/a	n/a	n/a	n/a	green
123.5446	1.0167	ITI	n/a	n/a	n/a	n/a	n/a	n/a	n/a	n/a
124.5613	0.5167	FIXCROSS	n/a	n/a	n/a	n/a	n/a	n/a	n/a	n/a
125.078	0.6166	INK	33	Incongruent	niebieski	blue	żółty	yellow	hit	n/a
125.6711	n/a	RESPONSE	n/a	n/a	n/a	n/a	n/a	n/a	n/a	yellow
125.6946	1.0167	ITI	n/a	n/a	n/a	n/a	n/a	n/a	n/a	n/a
126.7113	0.5166	FIXCROSS	n/a	n/a	n/a	n/a	n/a	n/a	n/a	n/a
127.228	0.8667	INK	34	Incongruent	czerwony	red	niebieski	blue	hit	n/a
128.0657	n/a	RESPONSE	n/a	n/a	n/a	n/a	n/a	n/a	n/a	blue
128.0947	1.0167	ITI	n/a	n/a	n/a	n/a	n/a	n/a	n/a	n/a
129.1114	0.5167	FIXCROSS	n/a	n/a	n/a	n/a	n/a	n/a	n/a	n/a
129.628	0.5167	INK	35	Neutral	xxxxxxx	xxxxxxx	czerwony	red	hit	n/a
130.1252	n/a	RESPONSE	n/a	n/a	n/a	n/a	n/a	n/a	n/a	red
130.1447	1.0167	ITI	n/a	n/a	n/a	n/a	n/a	n/a	n/a	n/a
131.1614	0.5167	FIXCROSS	n/a	n/a	n/a	n/a	n/a	n/a	n/a	n/a
131.678	0.4666	INK	36	Incongruent	niebieski	blue	czerwony	red	hit	n/a
132.1208	n/a	RESPONSE	n/a	n/a	n/a	n/a	n/a	n/a	n/a	red
132.1447	1.0166	ITI	n/a	n/a	n/a	n/a	n/a	n/a	n/a	n/a
133.1612	0.5168	FIXCROSS	n/a	n/a	n/a	n/a	n/a	n/a	n/a	n/a
133.6781	0.8	INK	37	Neutral	xxxxxxxx	xxxxxxxx	zielony	green	hit	n/a
134.4516	n/a	RESPONSE	n/a	n/a	n/a	n/a	n/a	n/a	n/a	green
134.4781	1.0167	ITI	n/a	n/a	n/a	n/a	n/a	n/a	n/a	n/a
135.4947	0.5167	FIXCROSS	n/a	n/a	n/a	n/a	n/a	n/a	n/a	n/a
136.0114	0.4833	INK	38	Neutral	xxxxxxx	xxxxxxx	żółty	yellow	hit	n/a
136.463	n/a	RESPONSE	n/a	n/a	n/a	n/a	n/a	n/a	n/a	yellow
136.4947	1.0167	ITI	n/a	n/a	n/a	n/a	n/a	n/a	n/a	n/a
137.5114	0.5167	FIXCROSS	n/a	n/a	n/a	n/a	n/a	n/a	n/a	n/a
138.0281	0.6333	INK	39	Neutral	xxxxx	xxxxx	czerwony	red	hit	n/a
138.6342	n/a	RESPONSE	n/a	n/a	n/a	n/a	n/a	n/a	n/a	red
138.6614	1.0167	ITI	n/a	n/a	n/a	n/a	n/a	n/a	n/a	n/a
139.6781	0.5167	FIXCROSS	n/a	n/a	n/a	n/a	n/a	n/a	n/a	n/a
140.1948	1.15	INK	40	Incongruent	czerwony	red	żółty	yellow	hit	n/a
141.3162	n/a	RESPONSE	n/a	n/a	n/a	n/a	n/a	n/a	n/a	yellow
141.3448	1.0167	ITI	n/a	n/a	n/a	n/a	n/a	n/a	n/a	n/a
142.3615	0.5167	FIXCROSS	n/a	n/a	n/a	n/a	n/a	n/a	n/a	n/a
142.8781	0.8666	INK	41	Neutral	xxxxxxx	xxxxxxx	niebieski	blue	incorrect	n/a
143.7108	n/a	RESPONSE	n/a	n/a	n/a	n/a	n/a	n/a	n/a	red
143.7448	1.0167	ITI	n/a	n/a	n/a	n/a	n/a	n/a	n/a	n/a
144.7614	0.5167	FIXCROSS	n/a	n/a	n/a	n/a	n/a	n/a	n/a	n/a
145.2781	0.6	INK	42	Neutral	xxxxxxxx	xxxxxxxx	niebieski	blue	hit	n/a
145.8537	n/a	RESPONSE	n/a	n/a	n/a	n/a	n/a	n/a	n/a	blue
145.8782	1.0166	ITI	n/a	n/a	n/a	n/a	n/a	n/a	n/a	n/a
146.8948	0.5167	FIXCROSS	n/a	n/a	n/a	n/a	n/a	n/a	n/a	n/a
147.4115	0.5667	INK	43	Neutral	xxxxxxx	xxxxxxx	niebieski	blue	hit	n/a
147.9574	n/a	RESPONSE	n/a	n/a	n/a	n/a	n/a	n/a	n/a	blue
147.9782	1.0167	ITI	n/a	n/a	n/a	n/a	n/a	n/a	n/a	n/a
148.9948	0.5166	FIXCROSS	n/a	n/a	n/a	n/a	n/a	n/a	n/a	n/a
149.5115	0.55	INK	44	Incongruent	niebieski	blue	czerwony	red	hit	n/a
150.0327	n/a	RESPONSE	n/a	n/a	n/a	n/a	n/a	n/a	n/a	red
150.0615	1.0167	ITI	n/a	n/a	n/a	n/a	n/a	n/a	n/a	n/a
151.0782	0.5167	FIXCROSS	n/a	n/a	n/a	n/a	n/a	n/a	n/a	n/a
151.5948	0.85	INK	45	Incongruent	niebieski	blue	zielony	green	hit	n/a
152.4114	n/a	RESPONSE	n/a	n/a	n/a	n/a	n/a	n/a	n/a	green
152.4449	1.0167	ITI	n/a	n/a	n/a	n/a	n/a	n/a	n/a	n/a
153.4615	0.5167	FIXCROSS	n/a	n/a	n/a	n/a	n/a	n/a	n/a	n/a
153.9782	0.4333	INK	46	Incongruent	niebieski	blue	żółty	yellow	hit	n/a
154.3909	n/a	RESPONSE	n/a	n/a	n/a	n/a	n/a	n/a	n/a	yellow
154.4115	1.0166	ITI	n/a	n/a	n/a	n/a	n/a	n/a	n/a	n/a
155.4282	0.5167	FIXCROSS	n/a	n/a	n/a	n/a	n/a	n/a	n/a	n/a
155.9449	0.7	INK	47	Incongruent	żółty	yellow	niebieski	blue	hit	n/a
156.626	n/a	RESPONSE	n/a	n/a	n/a	n/a	n/a	n/a	n/a	blue
156.6449	1.0167	ITI	n/a	n/a	n/a	n/a	n/a	n/a	n/a	n/a
157.6616	0.5167	FIXCROSS	n/a	n/a	n/a	n/a	n/a	n/a	n/a	n/a
158.1782	0.95	INK	48	Incongruent	żółty	yellow	zielony	green	hit	n/a
159.1005	n/a	RESPONSE	n/a	n/a	n/a	n/a	n/a	n/a	n/a	green
159.1283	1.0167	ITI	n/a	n/a	n/a	n/a	n/a	n/a	n/a	n/a
160.1449	0.5166	FIXCROSS	n/a	n/a	n/a	n/a	n/a	n/a	n/a	n/a
160.6616	0.5834	INK	49	Neutral	xxxxxxx	xxxxxxx	żółty	yellow	hit	n/a
161.2237	n/a	RESPONSE	n/a	n/a	n/a	n/a	n/a	n/a	n/a	yellow
161.2449	1.0167	ITI	n/a	n/a	n/a	n/a	n/a	n/a	n/a	n/a
162.2616	0.5167	FIXCROSS	n/a	n/a	n/a	n/a	n/a	n/a	n/a	n/a
162.7783	0.4833	INK	50	Incongruent	czerwony	red	żółty	yellow	hit	n/a
163.2352	n/a	RESPONSE	n/a	n/a	n/a	n/a	n/a	n/a	n/a	yellow
163.2616	1.0167	ITI	n/a	n/a	n/a	n/a	n/a	n/a	n/a	n/a
164.2783	0.5167	FIXCROSS	n/a	n/a	n/a	n/a	n/a	n/a	n/a	n/a
164.795	0.4667	INK	51	Incongruent	zielony	green	czerwony	red	hit	n/a
165.2308	n/a	RESPONSE	n/a	n/a	n/a	n/a	n/a	n/a	n/a	red
165.2616	1.0167	ITI	n/a	n/a	n/a	n/a	n/a	n/a	n/a	n/a
166.2783	0.5167	FIXCROSS	n/a	n/a	n/a	n/a	n/a	n/a	n/a	n/a
166.795	0.7	INK	52	Neutral	xxxxxxxxx	xxxxxxxxx	czerwony	red	hit	n/a
167.4658	n/a	RESPONSE	n/a	n/a	n/a	n/a	n/a	n/a	n/a	red
167.4949	1.0167	ITI	n/a	n/a	n/a	n/a	n/a	n/a	n/a	n/a
168.5116	0.5167	FIXCROSS	n/a	n/a	n/a	n/a	n/a	n/a	n/a	n/a
169.0283	0.5667	INK	53	Neutral	xxxxxxxx	xxxxxxxx	żółty	yellow	hit	n/a
169.5731	n/a	RESPONSE	n/a	n/a	n/a	n/a	n/a	n/a	n/a	yellow
169.595	1.0167	ITI	n/a	n/a	n/a	n/a	n/a	n/a	n/a	n/a
170.6117	0.5166	FIXCROSS	n/a	n/a	n/a	n/a	n/a	n/a	n/a	n/a
171.1283	0.6833	INK	54	Incongruent	żółty	yellow	niebieski	blue	hit	n/a
171.7921	n/a	RESPONSE	n/a	n/a	n/a	n/a	n/a	n/a	n/a	blue
171.8116	1.0167	ITI	n/a	n/a	n/a	n/a	n/a	n/a	n/a	n/a
172.8283	0.5167	FIXCROSS	n/a	n/a	n/a	n/a	n/a	n/a	n/a	n/a
173.345	1.0667	INK	55	Incongruent	żółty	yellow	czerwony	red	hit	n/a
174.3943	n/a	RESPONSE	n/a	n/a	n/a	n/a	n/a	n/a	n/a	red
174.4117	1.0167	ITI	n/a	n/a	n/a	n/a	n/a	n/a	n/a	n/a
175.4284	0.5167	FIXCROSS	n/a	n/a	n/a	n/a	n/a	n/a	n/a	n/a
175.945	0.6	INK	56	Neutral	xxxxxxx	xxxxxxx	czerwony	red	hit	n/a
176.5176	n/a	RESPONSE	n/a	n/a	n/a	n/a	n/a	n/a	n/a	red
176.545	1.0167	ITI	n/a	n/a	n/a	n/a	n/a	n/a	n/a	n/a
177.5617	0.5166	FIXCROSS	n/a	n/a	n/a	n/a	n/a	n/a	n/a	n/a
178.0784	0.65	INK	57	Neutral	xxxxxxxx	xxxxxxxx	zielony	green	hit	n/a
178.7048	n/a	RESPONSE	n/a	n/a	n/a	n/a	n/a	n/a	n/a	green
178.7284	1.0167	ITI	n/a	n/a	n/a	n/a	n/a	n/a	n/a	n/a
179.745	0.5167	FIXCROSS	n/a	n/a	n/a	n/a	n/a	n/a	n/a	n/a
180.2617	0.6833	INK	58	Neutral	xxxxx	xxxxx	czerwony	red	hit	n/a
180.9239	n/a	RESPONSE	n/a	n/a	n/a	n/a	n/a	n/a	n/a	red
180.9451	1.0167	ITI	n/a	n/a	n/a	n/a	n/a	n/a	n/a	n/a
181.9618	0.5167	FIXCROSS	n/a	n/a	n/a	n/a	n/a	n/a	n/a	n/a
182.4784	0.45	INK	59	Neutral	xxxxxxx	xxxxxxx	niebieski	blue	hit	n/a
182.9033	n/a	RESPONSE	n/a	n/a	n/a	n/a	n/a	n/a	n/a	blue
182.9284	1.0167	ITI	n/a	n/a	n/a	n/a	n/a	n/a	n/a	n/a
183.9451	0.5167	FIXCROSS	n/a	n/a	n/a	n/a	n/a	n/a	n/a	n/a
184.4618	0.75	INK	60	Neutral	xxxxxxxxx	xxxxxxxxx	zielony	green	hit	n/a
185.1862	n/a	RESPONSE	n/a	n/a	n/a	n/a	n/a	n/a	n/a	green
185.2118	1.0167	ITI	n/a	n/a	n/a	n/a	n/a	n/a	n/a	n/a
186.2284	0.5166	FIXCROSS	n/a	n/a	n/a	n/a	n/a	n/a	n/a	n/a
186.7451	1.3167	INK	61	Incongruent	żółty	yellow	zielony	green	hit	n/a
188.0279	n/a	RESPONSE	n/a	n/a	n/a	n/a	n/a	n/a	n/a	green
188.0618	1.0167	ITI	n/a	n/a	n/a	n/a	n/a	n/a	n/a	n/a
189.0785	0.5166	FIXCROSS	n/a	n/a	n/a	n/a	n/a	n/a	n/a	n/a
189.5951	0.6833	INK	62	Neutral	xxxxxxxxx	xxxxxxxxx	czerwony	red	hit	n/a
190.247	n/a	RESPONSE	n/a	n/a	n/a	n/a	n/a	n/a	n/a	red
190.2784	1.0167	ITI	n/a	n/a	n/a	n/a	n/a	n/a	n/a	n/a
191.2952	0.5167	FIXCROSS	n/a	n/a	n/a	n/a	n/a	n/a	n/a	n/a
191.8118	0.85	INK	63	Neutral	xxxxx	xxxxx	zielony	green	hit	n/a
192.6417	n/a	RESPONSE	n/a	n/a	n/a	n/a	n/a	n/a	n/a	green
192.6618	1.0167	ITI	n/a	n/a	n/a	n/a	n/a	n/a	n/a	n/a
193.6785	0.5167	FIXCROSS	n/a	n/a	n/a	n/a	n/a	n/a	n/a	n/a
194.1952	0.5167	INK	64	Neutral	xxxxxxxxx	xxxxxxxxx	zielony	green	hit	n/a
194.6852	n/a	RESPONSE	n/a	n/a	n/a	n/a	n/a	n/a	n/a	green
194.7118	1.0167	ITI	n/a	n/a	n/a	n/a	n/a	n/a	n/a	n/a
195.7285	0.5167	FIXCROSS	n/a	n/a	n/a	n/a	n/a	n/a	n/a	n/a
196.2452	0.9333	INK	65	Incongruent	żółty	yellow	niebieski	blue	incorrect	n/a
197.1596	n/a	RESPONSE	n/a	n/a	n/a	n/a	n/a	n/a	n/a	red
197.1785	1.0167	ITI	n/a	n/a	n/a	n/a	n/a	n/a	n/a	n/a
198.1952	0.5167	FIXCROSS	n/a	n/a	n/a	n/a	n/a	n/a	n/a	n/a
198.7119	0.7	INK	66	Neutral	xxxxx	xxxxx	niebieski	blue	hit	n/a
199.3787	n/a	RESPONSE	n/a	n/a	n/a	n/a	n/a	n/a	n/a	blue
199.4119	1.0167	ITI	n/a	n/a	n/a	n/a	n/a	n/a	n/a	n/a
200.4285	0.5167	FIXCROSS	n/a	n/a	n/a	n/a	n/a	n/a	n/a	n/a
200.9452	0.6333	INK	67	Neutral	xxxxxxxxx	xxxxxxxxx	żółty	yellow	hit	n/a
201.5499	n/a	RESPONSE	n/a	n/a	n/a	n/a	n/a	n/a	n/a	yellow
201.5786	1.0167	ITI	n/a	n/a	n/a	n/a	n/a	n/a	n/a	n/a
202.5952	0.5167	FIXCROSS	n/a	n/a	n/a	n/a	n/a	n/a	n/a	n/a
203.1119	0.85	INK	68	Neutral	xxxxxxxx	xxxxxxxx	niebieski	blue	hit	n/a
203.9286	n/a	RESPONSE	n/a	n/a	n/a	n/a	n/a	n/a	n/a	blue
203.9619	1.0167	ITI	n/a	n/a	n/a	n/a	n/a	n/a	n/a	n/a
204.9786	0.5167	FIXCROSS	n/a	n/a	n/a	n/a	n/a	n/a	n/a	n/a
205.4953	0.5	INK	69	Incongruent	zielony	green	niebieski	blue	hit	n/a
205.9721	n/a	RESPONSE	n/a	n/a	n/a	n/a	n/a	n/a	n/a	blue
205.9953	1.0167	ITI	n/a	n/a	n/a	n/a	n/a	n/a	n/a	n/a
207.0119	0.5166	FIXCROSS	n/a	n/a	n/a	n/a	n/a	n/a	n/a	n/a
207.5286	0.5834	INK	70	Neutral	xxxxxxx	xxxxxxx	żółty	yellow	hit	n/a
208.0794	n/a	RESPONSE	n/a	n/a	n/a	n/a	n/a	n/a	n/a	yellow
208.1119	1.0167	ITI	n/a	n/a	n/a	n/a	n/a	n/a	n/a	n/a
209.1286	0.5167	FIXCROSS	n/a	n/a	n/a	n/a	n/a	n/a	n/a	n/a
209.6453	0.7833	INK	71	Incongruent	zielony	green	czerwony	red	hit	n/a
210.4101	n/a	RESPONSE	n/a	n/a	n/a	n/a	n/a	n/a	n/a	red
210.4286	1.0167	ITI	n/a	n/a	n/a	n/a	n/a	n/a	n/a	n/a
211.4453	0.5167	FIXCROSS	n/a	n/a	n/a	n/a	n/a	n/a	n/a	n/a
211.962	1.0333	INK	72	Incongruent	niebieski	blue	zielony	green	hit	n/a
212.9645	n/a	RESPONSE	n/a	n/a	n/a	n/a	n/a	n/a	n/a	green
212.9953	1.0828	ITI	n/a	n/a	n/a	n/a	n/a	n/a	n/a	n/a
226.8694	n/a	RESPONSE	n/a	n/a	n/a	n/a	n/a	n/a	n/a	n/a
226.9287	1.0167	ITI	n/a	n/a	n/a	n/a	n/a	n/a	n/a	n/a
227.9454	0.5167	FIXCROSS	n/a	n/a	n/a	n/a	n/a	n/a	n/a	n/a
228.4621	0.85	T_COLOR_NAME	1	Incongruent	żółty	yellow	zielony	green	hit	n/a
229.28	n/a	RESPONSE	n/a	n/a	n/a	n/a	n/a	n/a	n/a	yellow
229.3121	0.5166	FEEDBACK	n/a	n/a	n/a	n/a	n/a	n/a	n/a	n/a
229.8287	1.0167	ITI	n/a	n/a	n/a	n/a	n/a	n/a	n/a	n/a
230.8454	0.5167	FIXCROSS	n/a	n/a	n/a	n/a	n/a	n/a	n/a	n/a
231.3621	0.75	T_COLOR_NAME	2	Neutral	żółty	yellow	Neutral	Neutral	hit	n/a
232.0739	n/a	RESPONSE	n/a	n/a	n/a	n/a	n/a	n/a	n/a	yellow
232.1121	0.5167	FEEDBACK	n/a	n/a	n/a	n/a	n/a	n/a	n/a	n/a
232.6288	1.0167	ITI	n/a	n/a	n/a	n/a	n/a	n/a	n/a	n/a
233.6455	0.5167	FIXCROSS	n/a	n/a	n/a	n/a	n/a	n/a	n/a	n/a
234.1621	1.1	T_COLOR_NAME	3	Incongruent	niebieski	blue	żółty	yellow	hit	n/a
235.2348	n/a	RESPONSE	n/a	n/a	n/a	n/a	n/a	n/a	n/a	blue
235.2621	0.5167	FEEDBACK	n/a	n/a	n/a	n/a	n/a	n/a	n/a	n/a
235.7788	1.0167	ITI	n/a	n/a	n/a	n/a	n/a	n/a	n/a	n/a
236.7955	0.5167	FIXCROSS	n/a	n/a	n/a	n/a	n/a	n/a	n/a	n/a
237.3121	0.7	T_COLOR_NAME	4	Neutral	czerwony	red	Neutral	Neutral	hit	n/a
237.9808	n/a	RESPONSE	n/a	n/a	n/a	n/a	n/a	n/a	n/a	red
238.0122	0.5166	FEEDBACK	n/a	n/a	n/a	n/a	n/a	n/a	n/a	n/a
238.5288	1.0167	ITI	n/a	n/a	n/a	n/a	n/a	n/a	n/a	n/a
239.5455	0.5167	FIXCROSS	n/a	n/a	n/a	n/a	n/a	n/a	n/a	n/a
240.0622	0.6833	T_COLOR_NAME	5	Incongruent	zielony	green	żółty	yellow	hit	n/a
240.7107	n/a	RESPONSE	n/a	n/a	n/a	n/a	n/a	n/a	n/a	green
240.7455	0.5167	FEEDBACK	n/a	n/a	n/a	n/a	n/a	n/a	n/a	n/a
241.2622	1.0167	ITI	n/a	n/a	n/a	n/a	n/a	n/a	n/a	n/a
242.2789	0.5167	FIXCROSS	n/a	n/a	n/a	n/a	n/a	n/a	n/a	n/a
242.7955	0.8333	T_COLOR_NAME	6	Incongruent	niebieski	blue	czerwony	red	incorrect	n/a
243.6002	n/a	RESPONSE	n/a	n/a	n/a	n/a	n/a	n/a	n/a	red
243.6288	0.5167	FEEDBACK	n/a	n/a	n/a	n/a	n/a	n/a	n/a	n/a
244.1455	1.0167	ITI	n/a	n/a	n/a	n/a	n/a	n/a	n/a	n/a
245.1622	0.5167	FIXCROSS	n/a	n/a	n/a	n/a	n/a	n/a	n/a	n/a
245.6789	1.3667	T_COLOR_NAME	7	Incongruent	czerwony	red	niebieski	blue	hit	n/a
247.0166	n/a	RESPONSE	n/a	n/a	n/a	n/a	n/a	n/a	n/a	red
247.0456	0.5167	FEEDBACK	n/a	n/a	n/a	n/a	n/a	n/a	n/a	n/a
247.5622	1.0166	ITI	n/a	n/a	n/a	n/a	n/a	n/a	n/a	n/a
248.5789	0.5167	FIXCROSS	n/a	n/a	n/a	n/a	n/a	n/a	n/a	n/a
249.0956	0.8	T_COLOR_NAME	8	Neutral	zielony	green	Neutral	Neutral	hit	n/a
249.8743	n/a	RESPONSE	n/a	n/a	n/a	n/a	n/a	n/a	n/a	green
249.8956	0.5167	FEEDBACK	n/a	n/a	n/a	n/a	n/a	n/a	n/a	n/a
250.4123	1.0167	ITI	n/a	n/a	n/a	n/a	n/a	n/a	n/a	n/a
251.4289	0.5167	FIXCROSS	n/a	n/a	n/a	n/a	n/a	n/a	n/a	n/a
251.9456	1.0666	T_COLOR_NAME	9	Incongruent	żółty	yellow	niebieski	blue	hit	n/a
252.9872	n/a	RESPONSE	n/a	n/a	n/a	n/a	n/a	n/a	n/a	yellow
253.0122	0.5167	FEEDBACK	n/a	n/a	n/a	n/a	n/a	n/a	n/a	n/a
253.5289	1.0167	ITI	n/a	n/a	n/a	n/a	n/a	n/a	n/a	n/a
254.5456	0.5167	FIXCROSS	n/a	n/a	n/a	n/a	n/a	n/a	n/a	n/a
255.0623	0.8833	T_COLOR_NAME	10	Neutral	niebieski	blue	Neutral	Neutral	hit	n/a
255.9247	n/a	RESPONSE	n/a	n/a	n/a	n/a	n/a	n/a	n/a	blue
255.9456	0.5167	FEEDBACK	n/a	n/a	n/a	n/a	n/a	n/a	n/a	n/a
256.4623	1.0166	ITI	n/a	n/a	n/a	n/a	n/a	n/a	n/a	n/a
257.4789	0.5167	FIXCROSS	n/a	n/a	n/a	n/a	n/a	n/a	n/a	n/a
257.9956	0.6833	T_COLOR_NAME	11	Neutral	niebieski	blue	Neutral	Neutral	hit	n/a
258.6547	n/a	RESPONSE	n/a	n/a	n/a	n/a	n/a	n/a	n/a	blue
258.6789	0.5167	FEEDBACK	n/a	n/a	n/a	n/a	n/a	n/a	n/a	n/a
259.1956	1.0167	ITI	n/a	n/a	n/a	n/a	n/a	n/a	n/a	n/a
260.2123	0.5167	FIXCROSS	n/a	n/a	n/a	n/a	n/a	n/a	n/a	n/a
260.729	0.8667	T_COLOR_NAME	12	Neutral	zielony	green	Neutral	Neutral	hit	n/a
261.5762	n/a	RESPONSE	n/a	n/a	n/a	n/a	n/a	n/a	n/a	green
261.5957	0.5167	FEEDBACK	n/a	n/a	n/a	n/a	n/a	n/a	n/a	n/a
262.1123	1.0334	ITI	n/a	n/a	n/a	n/a	n/a	n/a	n/a	n/a
273.4057	n/a	RESPONSE	n/a	n/a	n/a	n/a	n/a	n/a	n/a	n/a
273.4624	1.0167	ITI	n/a	n/a	n/a	n/a	n/a	n/a	n/a	n/a
274.4791	0.5167	FIXCROSS	n/a	n/a	n/a	n/a	n/a	n/a	n/a	n/a
274.9958	1.0	COLOR_NAME	1	Incongruent	czerwony	red	zielony	green	hit	n/a
275.9761	n/a	RESPONSE	n/a	n/a	n/a	n/a	n/a	n/a	n/a	red
275.9958	1.0167	ITI	n/a	n/a	n/a	n/a	n/a	n/a	n/a	n/a
277.0124	0.5167	FIXCROSS	n/a	n/a	n/a	n/a	n/a	n/a	n/a	n/a
277.5291	0.75	COLOR_NAME	2	Incongruent	niebieski	blue	zielony	green	hit	n/a
278.2589	n/a	RESPONSE	n/a	n/a	n/a	n/a	n/a	n/a	n/a	blue
278.2791	1.0167	ITI	n/a	n/a	n/a	n/a	n/a	n/a	n/a	n/a
279.2958	0.5167	FIXCROSS	n/a	n/a	n/a	n/a	n/a	n/a	n/a	n/a
279.8125	0.7666	COLOR_NAME	3	Neutral	żółty	yellow	Neutral	Neutral	hit	n/a
280.5578	n/a	RESPONSE	n/a	n/a	n/a	n/a	n/a	n/a	n/a	yellow
280.5791	1.0167	ITI	n/a	n/a	n/a	n/a	n/a	n/a	n/a	n/a
281.5958	0.5167	FIXCROSS	n/a	n/a	n/a	n/a	n/a	n/a	n/a	n/a
282.1124	1.5334	COLOR_NAME	4	Incongruent	niebieski	blue	czerwony	red	hit	n/a
283.623	n/a	RESPONSE	n/a	n/a	n/a	n/a	n/a	n/a	n/a	blue
283.6458	1.0167	ITI	n/a	n/a	n/a	n/a	n/a	n/a	n/a	n/a
284.6625	0.5167	FIXCROSS	n/a	n/a	n/a	n/a	n/a	n/a	n/a	n/a
285.1791	0.75	COLOR_NAME	5	Incongruent	zielony	green	żółty	yellow	incorrect	n/a
285.9058	n/a	RESPONSE	n/a	n/a	n/a	n/a	n/a	n/a	n/a	yellow
285.9292	1.0167	ITI	n/a	n/a	n/a	n/a	n/a	n/a	n/a	n/a
286.9459	0.5167	FIXCROSS	n/a	n/a	n/a	n/a	n/a	n/a	n/a	n/a
287.4625	1.0167	COLOR_NAME	6	Incongruent	żółty	yellow	niebieski	blue	hit	n/a
288.4602	n/a	RESPONSE	n/a	n/a	n/a	n/a	n/a	n/a	n/a	yellow
288.4792	1.0166	ITI	n/a	n/a	n/a	n/a	n/a	n/a	n/a	n/a
289.4958	0.5167	FIXCROSS	n/a	n/a	n/a	n/a	n/a	n/a	n/a	n/a
290.0125	0.8	COLOR_NAME	7	Incongruent	żółty	yellow	zielony	green	hit	n/a
290.7909	n/a	RESPONSE	n/a	n/a	n/a	n/a	n/a	n/a	n/a	yellow
290.8125	1.0167	ITI	n/a	n/a	n/a	n/a	n/a	n/a	n/a	n/a
291.8292	0.5167	FIXCROSS	n/a	n/a	n/a	n/a	n/a	n/a	n/a	n/a
292.3459	0.75	COLOR_NAME	8	Incongruent	zielony	green	niebieski	blue	hit	n/a
293.0739	n/a	RESPONSE	n/a	n/a	n/a	n/a	n/a	n/a	n/a	green
293.0959	1.0167	ITI	n/a	n/a	n/a	n/a	n/a	n/a	n/a	n/a
294.1126	0.5167	FIXCROSS	n/a	n/a	n/a	n/a	n/a	n/a	n/a	n/a
294.6292	0.75	COLOR_NAME	9	Neutral	czerwony	red	Neutral	Neutral	hit	n/a
295.3569	n/a	RESPONSE	n/a	n/a	n/a	n/a	n/a	n/a	n/a	red
295.3793	1.0167	ITI	n/a	n/a	n/a	n/a	n/a	n/a	n/a	n/a
296.3959	0.5167	FIXCROSS	n/a	n/a	n/a	n/a	n/a	n/a	n/a	n/a
296.9126	0.7666	COLOR_NAME	10	Incongruent	żółty	yellow	niebieski	blue	hit	n/a
297.6556	n/a	RESPONSE	n/a	n/a	n/a	n/a	n/a	n/a	n/a	yellow
297.6792	1.0167	ITI	n/a	n/a	n/a	n/a	n/a	n/a	n/a	n/a
298.6959	0.5167	FIXCROSS	n/a	n/a	n/a	n/a	n/a	n/a	n/a	n/a
299.2126	0.6333	COLOR_NAME	11	Neutral	żółty	yellow	Neutral	Neutral	hit	n/a
299.8268	n/a	RESPONSE	n/a	n/a	n/a	n/a	n/a	n/a	n/a	yellow
299.846	1.0167	ITI	n/a	n/a	n/a	n/a	n/a	n/a	n/a	n/a
300.8626	0.5167	FIXCROSS	n/a	n/a	n/a	n/a	n/a	n/a	n/a	n/a
301.3793	0.8166	COLOR_NAME	12	Neutral	czerwony	red	Neutral	Neutral	hit	n/a
302.1735	n/a	RESPONSE	n/a	n/a	n/a	n/a	n/a	n/a	n/a	red
302.1959	1.0167	ITI	n/a	n/a	n/a	n/a	n/a	n/a	n/a	n/a
303.2126	0.5167	FIXCROSS	n/a	n/a	n/a	n/a	n/a	n/a	n/a	n/a
303.7293	0.7667	COLOR_NAME	13	Neutral	żółty	yellow	Neutral	Neutral	hit	n/a
304.4724	n/a	RESPONSE	n/a	n/a	n/a	n/a	n/a	n/a	n/a	yellow
304.496	1.0167	ITI	n/a	n/a	n/a	n/a	n/a	n/a	n/a	n/a
305.5127	0.5167	FIXCROSS	n/a	n/a	n/a	n/a	n/a	n/a	n/a	n/a
306.0293	0.65	COLOR_NAME	14	Neutral	żółty	yellow	Neutral	Neutral	hit	n/a
306.6596	n/a	RESPONSE	n/a	n/a	n/a	n/a	n/a	n/a	n/a	yellow
306.6793	1.0167	ITI	n/a	n/a	n/a	n/a	n/a	n/a	n/a	n/a
307.696	0.5167	FIXCROSS	n/a	n/a	n/a	n/a	n/a	n/a	n/a	n/a
308.2127	1.0333	COLOR_NAME	15	Incongruent	niebieski	blue	żółty	yellow	hit	n/a
309.2138	n/a	RESPONSE	n/a	n/a	n/a	n/a	n/a	n/a	n/a	blue
309.246	1.0167	ITI	n/a	n/a	n/a	n/a	n/a	n/a	n/a	n/a
310.2627	0.5166	FIXCROSS	n/a	n/a	n/a	n/a	n/a	n/a	n/a	n/a
310.7793	0.6333	COLOR_NAME	16	Neutral	niebieski	blue	Neutral	Neutral	hit	n/a
311.385	n/a	RESPONSE	n/a	n/a	n/a	n/a	n/a	n/a	n/a	blue
311.4127	1.0167	ITI	n/a	n/a	n/a	n/a	n/a	n/a	n/a	n/a
312.4294	0.5167	FIXCROSS	n/a	n/a	n/a	n/a	n/a	n/a	n/a	n/a
312.946	0.75	COLOR_NAME	17	Neutral	zielony	green	Neutral	Neutral	hit	n/a
313.6679	n/a	RESPONSE	n/a	n/a	n/a	n/a	n/a	n/a	n/a	green
313.696	1.0167	ITI	n/a	n/a	n/a	n/a	n/a	n/a	n/a	n/a
314.7127	0.5167	FIXCROSS	n/a	n/a	n/a	n/a	n/a	n/a	n/a	n/a
315.2294	0.7333	COLOR_NAME	18	Incongruent	żółty	yellow	zielony	green	hit	n/a
315.9349	n/a	RESPONSE	n/a	n/a	n/a	n/a	n/a	n/a	n/a	yellow
315.9627	1.0167	ITI	n/a	n/a	n/a	n/a	n/a	n/a	n/a	n/a
316.9794	0.5167	FIXCROSS	n/a	n/a	n/a	n/a	n/a	n/a	n/a	n/a
317.4961	0.8333	COLOR_NAME	19	Incongruent	zielony	green	niebieski	blue	hit	n/a
318.2976	n/a	RESPONSE	n/a	n/a	n/a	n/a	n/a	n/a	n/a	green
318.3294	1.0167	ITI	n/a	n/a	n/a	n/a	n/a	n/a	n/a	n/a
319.3461	0.5166	FIXCROSS	n/a	n/a	n/a	n/a	n/a	n/a	n/a	n/a
319.8627	0.85	COLOR_NAME	20	Incongruent	zielony	green	żółty	yellow	hit	n/a
320.6922	n/a	RESPONSE	n/a	n/a	n/a	n/a	n/a	n/a	n/a	green
320.7128	1.0167	ITI	n/a	n/a	n/a	n/a	n/a	n/a	n/a	n/a
321.7294	0.5167	FIXCROSS	n/a	n/a	n/a	n/a	n/a	n/a	n/a	n/a
322.2461	0.6333	COLOR_NAME	21	Incongruent	niebieski	blue	zielony	green	hit	n/a
322.8474	n/a	RESPONSE	n/a	n/a	n/a	n/a	n/a	n/a	n/a	blue
322.8795	1.0167	ITI	n/a	n/a	n/a	n/a	n/a	n/a	n/a	n/a
323.8961	0.5167	FIXCROSS	n/a	n/a	n/a	n/a	n/a	n/a	n/a	n/a
324.4128	0.5667	COLOR_NAME	22	Neutral	niebieski	blue	Neutral	Neutral	hit	n/a
324.9547	n/a	RESPONSE	n/a	n/a	n/a	n/a	n/a	n/a	n/a	blue
324.9795	1.0167	ITI	n/a	n/a	n/a	n/a	n/a	n/a	n/a	n/a
325.9961	0.5167	FIXCROSS	n/a	n/a	n/a	n/a	n/a	n/a	n/a	n/a
326.5128	0.5833	COLOR_NAME	23	Incongruent	niebieski	blue	zielony	green	hit	n/a
327.0781	n/a	RESPONSE	n/a	n/a	n/a	n/a	n/a	n/a	n/a	blue
327.0961	1.0167	ITI	n/a	n/a	n/a	n/a	n/a	n/a	n/a	n/a
328.1128	0.5166	FIXCROSS	n/a	n/a	n/a	n/a	n/a	n/a	n/a	n/a
328.6295	0.4833	COLOR_NAME	24	Neutral	niebieski	blue	Neutral	Neutral	hit	n/a
329.0896	n/a	RESPONSE	n/a	n/a	n/a	n/a	n/a	n/a	n/a	blue
329.1128	1.0167	ITI	n/a	n/a	n/a	n/a	n/a	n/a	n/a	n/a
330.1295	0.5167	FIXCROSS	n/a	n/a	n/a	n/a	n/a	n/a	n/a	n/a
330.6462	0.8167	COLOR_NAME	25	Neutral	czerwony	red	Neutral	Neutral	hit	n/a
331.4363	n/a	RESPONSE	n/a	n/a	n/a	n/a	n/a	n/a	n/a	red
331.4628	1.0167	ITI	n/a	n/a	n/a	n/a	n/a	n/a	n/a	n/a
332.4795	0.5167	FIXCROSS	n/a	n/a	n/a	n/a	n/a	n/a	n/a	n/a
332.9962	0.5333	COLOR_NAME	26	Neutral	czerwony	red	Neutral	Neutral	hit	n/a
333.4957	n/a	RESPONSE	n/a	n/a	n/a	n/a	n/a	n/a	n/a	red
333.5295	1.0167	ITI	n/a	n/a	n/a	n/a	n/a	n/a	n/a	n/a
334.5462	0.5167	FIXCROSS	n/a	n/a	n/a	n/a	n/a	n/a	n/a	n/a
335.0629	0.7167	COLOR_NAME	27	Neutral	niebieski	blue	Neutral	Neutral	hit	n/a
335.7466	n/a	RESPONSE	n/a	n/a	n/a	n/a	n/a	n/a	n/a	blue
335.7795	1.0167	ITI	n/a	n/a	n/a	n/a	n/a	n/a	n/a	n/a
336.7962	0.5166	FIXCROSS	n/a	n/a	n/a	n/a	n/a	n/a	n/a	n/a
337.3129	0.8333	COLOR_NAME	28	Incongruent	żółty	yellow	czerwony	red	incorrect	n/a
338.1254	n/a	RESPONSE	n/a	n/a	n/a	n/a	n/a	n/a	n/a	green
338.1462	1.0167	ITI	n/a	n/a	n/a	n/a	n/a	n/a	n/a	n/a
339.1629	0.5167	FIXCROSS	n/a	n/a	n/a	n/a	n/a	n/a	n/a	n/a
339.6796	1.4166	COLOR_NAME	29	Incongruent	czerwony	red	żółty	yellow	hit	n/a
341.0628	n/a	RESPONSE	n/a	n/a	n/a	n/a	n/a	n/a	n/a	red
341.0962	1.0167	ITI	n/a	n/a	n/a	n/a	n/a	n/a	n/a	n/a
342.1129	0.5167	FIXCROSS	n/a	n/a	n/a	n/a	n/a	n/a	n/a	n/a
342.6296	0.6667	COLOR_NAME	30	Neutral	czerwony	red	Neutral	Neutral	hit	n/a
343.266	n/a	RESPONSE	n/a	n/a	n/a	n/a	n/a	n/a	n/a	red
343.2963	1.0167	ITI	n/a	n/a	n/a	n/a	n/a	n/a	n/a	n/a
344.3129	0.5167	FIXCROSS	n/a	n/a	n/a	n/a	n/a	n/a	n/a	n/a
344.8296	0.85	COLOR_NAME	31	Incongruent	zielony	green	żółty	yellow	hit	n/a
345.6605	n/a	RESPONSE	n/a	n/a	n/a	n/a	n/a	n/a	n/a	green
345.6796	1.0166	ITI	n/a	n/a	n/a	n/a	n/a	n/a	n/a	n/a
346.6963	0.5167	FIXCROSS	n/a	n/a	n/a	n/a	n/a	n/a	n/a	n/a
347.213	0.7833	COLOR_NAME	32	Neutral	niebieski	blue	Neutral	Neutral	hit	n/a
347.9753	n/a	RESPONSE	n/a	n/a	n/a	n/a	n/a	n/a	n/a	blue
347.9963	1.0167	ITI	n/a	n/a	n/a	n/a	n/a	n/a	n/a	n/a
349.013	0.5167	FIXCROSS	n/a	n/a	n/a	n/a	n/a	n/a	n/a	n/a
349.5296	0.7333	COLOR_NAME	33	Incongruent	żółty	yellow	niebieski	blue	hit	n/a
350.2423	n/a	RESPONSE	n/a	n/a	n/a	n/a	n/a	n/a	n/a	yellow
350.263	1.0167	ITI	n/a	n/a	n/a	n/a	n/a	n/a	n/a	n/a
351.2797	0.5166	FIXCROSS	n/a	n/a	n/a	n/a	n/a	n/a	n/a	n/a
351.7963	0.8667	COLOR_NAME	34	Incongruent	niebieski	blue	żółty	yellow	hit	n/a
352.6369	n/a	RESPONSE	n/a	n/a	n/a	n/a	n/a	n/a	n/a	blue
352.663	1.0166	ITI	n/a	n/a	n/a	n/a	n/a	n/a	n/a	n/a
353.6796	0.5167	FIXCROSS	n/a	n/a	n/a	n/a	n/a	n/a	n/a	n/a
354.1963	0.6333	COLOR_NAME	35	Neutral	niebieski	blue	Neutral	Neutral	hit	n/a
354.8081	n/a	RESPONSE	n/a	n/a	n/a	n/a	n/a	n/a	n/a	blue
354.8297	1.0166	ITI	n/a	n/a	n/a	n/a	n/a	n/a	n/a	n/a
355.8463	0.5167	FIXCROSS	n/a	n/a	n/a	n/a	n/a	n/a	n/a	n/a
356.363	0.5167	COLOR_NAME	36	Incongruent	niebieski	blue	żółty	yellow	hit	n/a
356.8516	n/a	RESPONSE	n/a	n/a	n/a	n/a	n/a	n/a	n/a	blue
356.8797	1.0167	ITI	n/a	n/a	n/a	n/a	n/a	n/a	n/a	n/a
357.8964	0.5167	FIXCROSS	n/a	n/a	n/a	n/a	n/a	n/a	n/a	n/a
358.413	0.7833	COLOR_NAME	37	Neutral	zielony	green	Neutral	Neutral	hit	n/a
359.1665	n/a	RESPONSE	n/a	n/a	n/a	n/a	n/a	n/a	n/a	green
359.1963	1.0167	ITI	n/a	n/a	n/a	n/a	n/a	n/a	n/a	n/a
360.213	0.5167	FIXCROSS	n/a	n/a	n/a	n/a	n/a	n/a	n/a	n/a
360.7297	0.6833	COLOR_NAME	38	Incongruent	czerwony	red	żółty	yellow	hit	n/a
361.3854	n/a	RESPONSE	n/a	n/a	n/a	n/a	n/a	n/a	n/a	red
361.4131	1.0167	ITI	n/a	n/a	n/a	n/a	n/a	n/a	n/a	n/a
362.4297	0.5167	FIXCROSS	n/a	n/a	n/a	n/a	n/a	n/a	n/a	n/a
362.9464	0.85	COLOR_NAME	39	Neutral	zielony	green	Neutral	Neutral	hit	n/a
363.7642	n/a	RESPONSE	n/a	n/a	n/a	n/a	n/a	n/a	n/a	green
363.7964	1.0166	ITI	n/a	n/a	n/a	n/a	n/a	n/a	n/a	n/a
364.8131	0.5167	FIXCROSS	n/a	n/a	n/a	n/a	n/a	n/a	n/a	n/a
365.3298	0.6833	COLOR_NAME	40	Incongruent	zielony	green	czerwony	red	hit	n/a
365.9833	n/a	RESPONSE	n/a	n/a	n/a	n/a	n/a	n/a	n/a	green
366.0131	1.0167	ITI	n/a	n/a	n/a	n/a	n/a	n/a	n/a	n/a
367.0298	0.5166	FIXCROSS	n/a	n/a	n/a	n/a	n/a	n/a	n/a	n/a
367.5464	0.6834	COLOR_NAME	41	Neutral	żółty	yellow	Neutral	Neutral	hit	n/a
368.2024	n/a	RESPONSE	n/a	n/a	n/a	n/a	n/a	n/a	n/a	yellow
368.2298	1.0166	ITI	n/a	n/a	n/a	n/a	n/a	n/a	n/a	n/a
369.2464	0.5167	FIXCROSS	n/a	n/a	n/a	n/a	n/a	n/a	n/a	n/a
369.7631	0.4833	COLOR_NAME	42	Neutral	żółty	yellow	Neutral	Neutral	hit	n/a
370.2138	n/a	RESPONSE	n/a	n/a	n/a	n/a	n/a	n/a	n/a	yellow
370.2465	1.0167	ITI	n/a	n/a	n/a	n/a	n/a	n/a	n/a	n/a
371.2631	0.5167	FIXCROSS	n/a	n/a	n/a	n/a	n/a	n/a	n/a	n/a
371.7798	0.8	COLOR_NAME	43	Neutral	niebieski	blue	Neutral	Neutral	hit	n/a
372.5606	n/a	RESPONSE	n/a	n/a	n/a	n/a	n/a	n/a	n/a	blue
372.5798	1.0167	ITI	n/a	n/a	n/a	n/a	n/a	n/a	n/a	n/a
373.5965	0.5167	FIXCROSS	n/a	n/a	n/a	n/a	n/a	n/a	n/a	n/a
374.1132	0.7167	COLOR_NAME	44	Neutral	żółty	yellow	Neutral	Neutral	hit	n/a
374.8115	n/a	RESPONSE	n/a	n/a	n/a	n/a	n/a	n/a	n/a	yellow
374.8298	1.0167	ITI	n/a	n/a	n/a	n/a	n/a	n/a	n/a	n/a
375.8465	0.5167	FIXCROSS	n/a	n/a	n/a	n/a	n/a	n/a	n/a	n/a
376.3632	0.8833	COLOR_NAME	45	Incongruent	żółty	yellow	czerwony	red	hit	n/a
377.2221	n/a	RESPONSE	n/a	n/a	n/a	n/a	n/a	n/a	n/a	yellow
377.2465	1.0167	ITI	n/a	n/a	n/a	n/a	n/a	n/a	n/a	n/a
378.2632	0.5167	FIXCROSS	n/a	n/a	n/a	n/a	n/a	n/a	n/a	n/a
378.7799	0.6333	COLOR_NAME	46	Neutral	zielony	green	Neutral	Neutral	hit	n/a
379.3933	n/a	RESPONSE	n/a	n/a	n/a	n/a	n/a	n/a	n/a	green
379.4132	1.0167	ITI	n/a	n/a	n/a	n/a	n/a	n/a	n/a	n/a
380.4299	0.5167	FIXCROSS	n/a	n/a	n/a	n/a	n/a	n/a	n/a	n/a
380.9465	0.7833	COLOR_NAME	47	Incongruent	czerwony	red	niebieski	blue	hit	n/a
381.7082	n/a	RESPONSE	n/a	n/a	n/a	n/a	n/a	n/a	n/a	red
381.7299	1.0167	ITI	n/a	n/a	n/a	n/a	n/a	n/a	n/a	n/a
382.7465	0.5167	FIXCROSS	n/a	n/a	n/a	n/a	n/a	n/a	n/a	n/a
383.2632	0.6167	COLOR_NAME	48	Incongruent	czerwony	red	niebieski	blue	hit	n/a
383.8475	n/a	RESPONSE	n/a	n/a	n/a	n/a	n/a	n/a	n/a	red
383.8799	1.0166	ITI	n/a	n/a	n/a	n/a	n/a	n/a	n/a	n/a
384.8965	0.5167	FIXCROSS	n/a	n/a	n/a	n/a	n/a	n/a	n/a	n/a
385.4132	0.7333	COLOR_NAME	49	Neutral	niebieski	blue	Neutral	Neutral	hit	n/a
386.1144	n/a	RESPONSE	n/a	n/a	n/a	n/a	n/a	n/a	n/a	blue
386.1466	1.0167	ITI	n/a	n/a	n/a	n/a	n/a	n/a	n/a	n/a
387.1632	0.5167	FIXCROSS	n/a	n/a	n/a	n/a	n/a	n/a	n/a	n/a
387.6799	0.75	COLOR_NAME	50	Neutral	czerwony	red	Neutral	Neutral	hit	n/a
388.3974	n/a	RESPONSE	n/a	n/a	n/a	n/a	n/a	n/a	n/a	red
388.4299	1.0167	ITI	n/a	n/a	n/a	n/a	n/a	n/a	n/a	n/a
389.4466	0.5167	FIXCROSS	n/a	n/a	n/a	n/a	n/a	n/a	n/a	n/a
389.9633	0.85	COLOR_NAME	51	Neutral	zielony	green	Neutral	Neutral	hit	n/a
390.792	n/a	RESPONSE	n/a	n/a	n/a	n/a	n/a	n/a	n/a	green
390.8133	1.0166	ITI	n/a	n/a	n/a	n/a	n/a	n/a	n/a	n/a
391.8299	0.5167	FIXCROSS	n/a	n/a	n/a	n/a	n/a	n/a	n/a	n/a
392.3466	0.6	COLOR_NAME	52	Neutral	żółty	yellow	Neutral	Neutral	hit	n/a
392.9152	n/a	RESPONSE	n/a	n/a	n/a	n/a	n/a	n/a	n/a	yellow
392.9466	1.0167	ITI	n/a	n/a	n/a	n/a	n/a	n/a	n/a	n/a
393.9633	0.5166	FIXCROSS	n/a	n/a	n/a	n/a	n/a	n/a	n/a	n/a
394.4799	0.7834	COLOR_NAME	53	Incongruent	zielony	green	czerwony	red	hit	n/a
395.2301	n/a	RESPONSE	n/a	n/a	n/a	n/a	n/a	n/a	n/a	green
395.2633	1.0166	ITI	n/a	n/a	n/a	n/a	n/a	n/a	n/a	n/a
396.2799	0.5167	FIXCROSS	n/a	n/a	n/a	n/a	n/a	n/a	n/a	n/a
396.7967	0.8167	COLOR_NAME	54	Neutral	czerwony	red	Neutral	Neutral	hit	n/a
397.5928	n/a	RESPONSE	n/a	n/a	n/a	n/a	n/a	n/a	n/a	red
397.6133	1.0166	ITI	n/a	n/a	n/a	n/a	n/a	n/a	n/a	n/a
398.63	0.5167	FIXCROSS	n/a	n/a	n/a	n/a	n/a	n/a	n/a	n/a
399.1467	0.8667	COLOR_NAME	55	Incongruent	czerwony	red	niebieski	blue	hit	n/a
399.9874	n/a	RESPONSE	n/a	n/a	n/a	n/a	n/a	n/a	n/a	red
400.0133	1.0166	ITI	n/a	n/a	n/a	n/a	n/a	n/a	n/a	n/a
401.03	0.5167	FIXCROSS	n/a	n/a	n/a	n/a	n/a	n/a	n/a	n/a
401.5467	0.9667	COLOR_NAME	56	Incongruent	zielony	green	niebieski	blue	hit	n/a
402.4937	n/a	RESPONSE	n/a	n/a	n/a	n/a	n/a	n/a	n/a	green
402.5134	1.0166	ITI	n/a	n/a	n/a	n/a	n/a	n/a	n/a	n/a
403.53	0.5167	FIXCROSS	n/a	n/a	n/a	n/a	n/a	n/a	n/a	n/a
404.0467	0.75	COLOR_NAME	57	Neutral	żółty	yellow	Neutral	Neutral	hit	n/a
404.7767	n/a	RESPONSE	n/a	n/a	n/a	n/a	n/a	n/a	n/a	yellow
404.7967	1.0167	ITI	n/a	n/a	n/a	n/a	n/a	n/a	n/a	n/a
405.8134	0.5167	FIXCROSS	n/a	n/a	n/a	n/a	n/a	n/a	n/a	n/a
406.3301	0.7333	COLOR_NAME	58	Incongruent	niebieski	blue	czerwony	red	incorrect	n/a
407.0435	n/a	RESPONSE	n/a	n/a	n/a	n/a	n/a	n/a	n/a	red
407.0634	1.0166	ITI	n/a	n/a	n/a	n/a	n/a	n/a	n/a	n/a
408.08	0.5167	FIXCROSS	n/a	n/a	n/a	n/a	n/a	n/a	n/a	n/a
408.5967	0.7333	COLOR_NAME	59	Neutral	zielony	green	Neutral	Neutral	hit	n/a
409.3105	n/a	RESPONSE	n/a	n/a	n/a	n/a	n/a	n/a	n/a	green
409.3301	1.0167	ITI	n/a	n/a	n/a	n/a	n/a	n/a	n/a	n/a
410.3467	0.5167	FIXCROSS	n/a	n/a	n/a	n/a	n/a	n/a	n/a	n/a
410.8634	0.7333	COLOR_NAME	60	Neutral	zielony	green	Neutral	Neutral	hit	n/a
411.5775	n/a	RESPONSE	n/a	n/a	n/a	n/a	n/a	n/a	n/a	green
411.5968	1.0166	ITI	n/a	n/a	n/a	n/a	n/a	n/a	n/a	n/a
412.6134	0.5167	FIXCROSS	n/a	n/a	n/a	n/a	n/a	n/a	n/a	n/a
413.1301	0.8166	COLOR_NAME	61	Incongruent	czerwony	red	żółty	yellow	hit	n/a
413.9242	n/a	RESPONSE	n/a	n/a	n/a	n/a	n/a	n/a	n/a	red
413.9467	1.0167	ITI	n/a	n/a	n/a	n/a	n/a	n/a	n/a	n/a
414.9634	0.5167	FIXCROSS	n/a	n/a	n/a	n/a	n/a	n/a	n/a	n/a
415.4801	0.8333	COLOR_NAME	62	Neutral	zielony	green	Neutral	Neutral	hit	n/a
416.2869	n/a	RESPONSE	n/a	n/a	n/a	n/a	n/a	n/a	n/a	green
416.3135	1.0166	ITI	n/a	n/a	n/a	n/a	n/a	n/a	n/a	n/a
417.3301	0.5167	FIXCROSS	n/a	n/a	n/a	n/a	n/a	n/a	n/a	n/a
417.8468	0.8	COLOR_NAME	63	Neutral	czerwony	red	Neutral	Neutral	hit	n/a
418.6176	n/a	RESPONSE	n/a	n/a	n/a	n/a	n/a	n/a	n/a	red
418.6468	1.0167	ITI	n/a	n/a	n/a	n/a	n/a	n/a	n/a	n/a
419.6635	0.5166	FIXCROSS	n/a	n/a	n/a	n/a	n/a	n/a	n/a	n/a
420.1801	0.8334	COLOR_NAME	64	Incongruent	żółty	yellow	zielony	green	hit	n/a
420.9804	n/a	RESPONSE	n/a	n/a	n/a	n/a	n/a	n/a	n/a	yellow
421.0135	1.0167	ITI	n/a	n/a	n/a	n/a	n/a	n/a	n/a	n/a
422.0302	0.5166	FIXCROSS	n/a	n/a	n/a	n/a	n/a	n/a	n/a	n/a
422.5468	0.9	COLOR_NAME	65	Incongruent	zielony	green	czerwony	red	hit	n/a
423.423	n/a	RESPONSE	n/a	n/a	n/a	n/a	n/a	n/a	n/a	green
423.4468	1.0167	ITI	n/a	n/a	n/a	n/a	n/a	n/a	n/a	n/a
424.4635	0.5167	FIXCROSS	n/a	n/a	n/a	n/a	n/a	n/a	n/a	n/a
424.9802	0.9666	COLOR_NAME	66	Incongruent	żółty	yellow	czerwony	red	hit	n/a
425.9133	n/a	RESPONSE	n/a	n/a	n/a	n/a	n/a	n/a	n/a	yellow
425.9468	1.0167	ITI	n/a	n/a	n/a	n/a	n/a	n/a	n/a	n/a
426.9635	0.5167	FIXCROSS	n/a	n/a	n/a	n/a	n/a	n/a	n/a	n/a
427.4802	0.7167	COLOR_NAME	67	Incongruent	czerwony	red	zielony	green	hit	n/a
428.1642	n/a	RESPONSE	n/a	n/a	n/a	n/a	n/a	n/a	n/a	red
428.1969	1.0167	ITI	n/a	n/a	n/a	n/a	n/a	n/a	n/a	n/a
429.2135	0.5167	FIXCROSS	n/a	n/a	n/a	n/a	n/a	n/a	n/a	n/a
429.7302	0.7167	COLOR_NAME	68	Neutral	niebieski	blue	Neutral	Neutral	hit	n/a
430.4152	n/a	RESPONSE	n/a	n/a	n/a	n/a	n/a	n/a	n/a	blue
430.4469	1.0167	ITI	n/a	n/a	n/a	n/a	n/a	n/a	n/a	n/a
431.4636	0.5167	FIXCROSS	n/a	n/a	n/a	n/a	n/a	n/a	n/a	n/a
431.9802	0.7667	COLOR_NAME	69	Incongruent	czerwony	red	zielony	green	hit	n/a
432.7142	n/a	RESPONSE	n/a	n/a	n/a	n/a	n/a	n/a	n/a	red
432.7469	1.0166	ITI	n/a	n/a	n/a	n/a	n/a	n/a	n/a	n/a
433.7635	0.5167	FIXCROSS	n/a	n/a	n/a	n/a	n/a	n/a	n/a	n/a
434.2802	0.6834	COLOR_NAME	70	Neutral	czerwony	red	Neutral	Neutral	hit	n/a
434.9332	n/a	RESPONSE	n/a	n/a	n/a	n/a	n/a	n/a	n/a	red
434.9636	1.0166	ITI	n/a	n/a	n/a	n/a	n/a	n/a	n/a	n/a
435.9802	0.5167	FIXCROSS	n/a	n/a	n/a	n/a	n/a	n/a	n/a	n/a
436.4969	0.75	COLOR_NAME	71	Incongruent	niebieski	blue	czerwony	red	hit	n/a
437.2162	n/a	RESPONSE	n/a	n/a	n/a	n/a	n/a	n/a	n/a	blue
437.2469	1.0167	ITI	n/a	n/a	n/a	n/a	n/a	n/a	n/a	n/a
438.2636	0.5166	FIXCROSS	n/a	n/a	n/a	n/a	n/a	n/a	n/a	n/a
438.7802	0.8667	COLOR_NAME	72	Neutral	zielony	green	Neutral	Neutral	hit	n/a
439.6268	n/a	RESPONSE	n/a	n/a	n/a	n/a	n/a	n/a	n/a	green
439.647	1.0333	ITI	n/a	n/a	n/a	n/a	n/a	n/a	n/a	n/a
443.2507	n/a	RESPONSE	n/a	n/a	n/a	n/a	n/a	n/a	n/a	n/a
