onset	duration	trial_type	trial_number	stroop_condition	stim_text(PL)	stim_text(eng)	stim_color(PL)	stim_color(eng)	response_type	response_color
0.0	n/a	RESPONSE	n/a	n/a	n/a	n/a	n/a	n/a	n/a	n/a
0.032	1.0166	ITI	n/a	n/a	n/a	n/a	n/a	n/a	n/a	n/a
1.0486	0.5	FIXCROSS	n/a	n/a	n/a	n/a	n/a	n/a	n/a	n/a
1.5486	1.0	T_INK	1	Neutral	xxxxxxxxx	xxxxxxxxx	czerwony	red	hit	n/a
2.5423	n/a	RESPONSE	n/a	n/a	n/a	n/a	n/a	n/a	n/a	red
2.5486	0.5	FEEDBACK	n/a	n/a	n/a	n/a	n/a	n/a	n/a	n/a
3.0486	1.0	ITI	n/a	n/a	n/a	n/a	n/a	n/a	n/a	n/a
4.0486	0.5	FIXCROSS	n/a	n/a	n/a	n/a	n/a	n/a	n/a	n/a
4.5486	0.9833	T_INK	2	Incongruent	zielony	green	niebieski	blue	hit	n/a
5.5162	n/a	RESPONSE	n/a	n/a	n/a	n/a	n/a	n/a	n/a	blue
5.5319	0.5	FEEDBACK	n/a	n/a	n/a	n/a	n/a	n/a	n/a	n/a
6.0319	1.0	ITI	n/a	n/a	n/a	n/a	n/a	n/a	n/a	n/a
7.0318	0.5	FIXCROSS	n/a	n/a	n/a	n/a	n/a	n/a	n/a	n/a
7.5318	0.9167	T_INK	3	Neutral	xxxxxxxxx	xxxxxxxxx	zielony	green	hit	n/a
8.442	n/a	RESPONSE	n/a	n/a	n/a	n/a	n/a	n/a	n/a	green
8.4485	0.5	FEEDBACK	n/a	n/a	n/a	n/a	n/a	n/a	n/a	n/a
8.5379	n/a	RESPONSE	n/a	n/a	n/a	n/a	n/a	n/a	n/a	yellow
8.9485	1.0	ITI	n/a	n/a	n/a	n/a	n/a	n/a	n/a	n/a
9.9485	0.5	FIXCROSS	n/a	n/a	n/a	n/a	n/a	n/a	n/a	n/a
10.4484	1.0833	T_INK	4	Incongruent	czerwony	red	zielony	green	hit	n/a
11.5278	n/a	RESPONSE	n/a	n/a	n/a	n/a	n/a	n/a	n/a	green
11.5317	0.5	FEEDBACK	n/a	n/a	n/a	n/a	n/a	n/a	n/a	n/a
12.0318	1.0	ITI	n/a	n/a	n/a	n/a	n/a	n/a	n/a	n/a
13.0317	0.5	FIXCROSS	n/a	n/a	n/a	n/a	n/a	n/a	n/a	n/a
13.5317	0.65	T_INK	5	Incongruent	żółty	yellow	czerwony	red	hit	n/a
14.1659	n/a	RESPONSE	n/a	n/a	n/a	n/a	n/a	n/a	n/a	red
14.1817	0.5	FEEDBACK	n/a	n/a	n/a	n/a	n/a	n/a	n/a	n/a
14.6817	1.0	ITI	n/a	n/a	n/a	n/a	n/a	n/a	n/a	n/a
15.6817	0.5	FIXCROSS	n/a	n/a	n/a	n/a	n/a	n/a	n/a	n/a
16.1817	0.8166	T_INK	6	Neutral	xxxxxxxx	xxxxxxxx	żółty	yellow	hit	n/a
16.9799	n/a	RESPONSE	n/a	n/a	n/a	n/a	n/a	n/a	n/a	yellow
16.9983	0.5	FEEDBACK	n/a	n/a	n/a	n/a	n/a	n/a	n/a	n/a
17.4983	1.0	ITI	n/a	n/a	n/a	n/a	n/a	n/a	n/a	n/a
18.4983	0.5	FIXCROSS	n/a	n/a	n/a	n/a	n/a	n/a	n/a	n/a
18.9983	1.55	T_INK	7	Neutral	xxxxxxx	xxxxxxx	żółty	yellow	incorrect	n/a
20.5294	n/a	RESPONSE	n/a	n/a	n/a	n/a	n/a	n/a	n/a	green
20.5482	0.5	FEEDBACK	n/a	n/a	n/a	n/a	n/a	n/a	n/a	n/a
21.0482	1.0	ITI	n/a	n/a	n/a	n/a	n/a	n/a	n/a	n/a
22.0482	0.5	FIXCROSS	n/a	n/a	n/a	n/a	n/a	n/a	n/a	n/a
22.5482	1.1333	T_INK	8	Incongruent	czerwony	red	żółty	yellow	incorrect	n/a
23.6632	n/a	RESPONSE	n/a	n/a	n/a	n/a	n/a	n/a	n/a	green
23.6815	0.5	FEEDBACK	n/a	n/a	n/a	n/a	n/a	n/a	n/a	n/a
24.1815	1.0	ITI	n/a	n/a	n/a	n/a	n/a	n/a	n/a	n/a
25.1815	0.5	FIXCROSS	n/a	n/a	n/a	n/a	n/a	n/a	n/a	n/a
25.6815	0.55	T_INK	9	Neutral	xxxxxxxx	xxxxxxxx	zielony	green	hit	n/a
26.2213	n/a	RESPONSE	n/a	n/a	n/a	n/a	n/a	n/a	n/a	green
26.2315	0.5	FEEDBACK	n/a	n/a	n/a	n/a	n/a	n/a	n/a	n/a
26.7314	1.0	ITI	n/a	n/a	n/a	n/a	n/a	n/a	n/a	n/a
27.7314	0.5	FIXCROSS	n/a	n/a	n/a	n/a	n/a	n/a	n/a	n/a
28.2314	0.65	T_INK	10	Incongruent	niebieski	blue	żółty	yellow	hit	n/a
28.8754	n/a	RESPONSE	n/a	n/a	n/a	n/a	n/a	n/a	n/a	yellow
28.8814	0.5	FEEDBACK	n/a	n/a	n/a	n/a	n/a	n/a	n/a	n/a
29.3814	1.0	ITI	n/a	n/a	n/a	n/a	n/a	n/a	n/a	n/a
30.3814	0.5	FIXCROSS	n/a	n/a	n/a	n/a	n/a	n/a	n/a	n/a
30.8814	0.6	T_INK	11	Incongruent	żółty	yellow	niebieski	blue	hit	n/a
31.4656	n/a	RESPONSE	n/a	n/a	n/a	n/a	n/a	n/a	n/a	blue
31.4814	0.5	FEEDBACK	n/a	n/a	n/a	n/a	n/a	n/a	n/a	n/a
31.9813	1.0	ITI	n/a	n/a	n/a	n/a	n/a	n/a	n/a	n/a
32.9813	0.5	FIXCROSS	n/a	n/a	n/a	n/a	n/a	n/a	n/a	n/a
33.4813	0.8333	T_INK	12	Incongruent	żółty	yellow	zielony	green	hit	n/a
34.2955	n/a	RESPONSE	n/a	n/a	n/a	n/a	n/a	n/a	n/a	green
34.3146	0.5	FEEDBACK	n/a	n/a	n/a	n/a	n/a	n/a	n/a	n/a
34.8146	1.0	ITI	n/a	n/a	n/a	n/a	n/a	n/a	n/a	n/a
43.6009	n/a	RESPONSE	n/a	n/a	n/a	n/a	n/a	n/a	n/a	n/a
43.6311	1.0	ITI	n/a	n/a	n/a	n/a	n/a	n/a	n/a	n/a
44.6311	0.5	FIXCROSS	n/a	n/a	n/a	n/a	n/a	n/a	n/a	n/a
45.1311	0.85	INK	1	Incongruent	czerwony	red	niebieski	blue	hit	n/a
45.9671	n/a	RESPONSE	n/a	n/a	n/a	n/a	n/a	n/a	n/a	blue
45.9811	1.0	ITI	n/a	n/a	n/a	n/a	n/a	n/a	n/a	n/a
46.981	0.5	FIXCROSS	n/a	n/a	n/a	n/a	n/a	n/a	n/a	n/a
47.481	0.7	INK	2	Incongruent	niebieski	blue	zielony	green	hit	n/a
48.1736	n/a	RESPONSE	n/a	n/a	n/a	n/a	n/a	n/a	n/a	green
48.181	1.0	ITI	n/a	n/a	n/a	n/a	n/a	n/a	n/a	n/a
49.181	0.5	FIXCROSS	n/a	n/a	n/a	n/a	n/a	n/a	n/a	n/a
49.681	0.5	INK	3	Incongruent	czerwony	red	żółty	yellow	hit	n/a
50.1721	n/a	RESPONSE	n/a	n/a	n/a	n/a	n/a	n/a	n/a	yellow
50.181	1.0	ITI	n/a	n/a	n/a	n/a	n/a	n/a	n/a	n/a
51.1809	0.5	FIXCROSS	n/a	n/a	n/a	n/a	n/a	n/a	n/a	n/a
51.6809	0.7167	INK	4	Incongruent	czerwony	red	zielony	green	hit	n/a
52.3786	n/a	RESPONSE	n/a	n/a	n/a	n/a	n/a	n/a	n/a	green
52.3976	1.0	ITI	n/a	n/a	n/a	n/a	n/a	n/a	n/a	n/a
53.3976	0.5	FIXCROSS	n/a	n/a	n/a	n/a	n/a	n/a	n/a	n/a
53.8976	0.5667	INK	5	Neutral	xxxxxxxxx	xxxxxxxxx	czerwony	red	hit	n/a
54.457	n/a	RESPONSE	n/a	n/a	n/a	n/a	n/a	n/a	n/a	red
54.4642	1.0	ITI	n/a	n/a	n/a	n/a	n/a	n/a	n/a	n/a
55.4642	0.5	FIXCROSS	n/a	n/a	n/a	n/a	n/a	n/a	n/a	n/a
55.9642	0.5667	INK	6	Incongruent	żółty	yellow	zielony	green	hit	n/a
56.5196	n/a	RESPONSE	n/a	n/a	n/a	n/a	n/a	n/a	n/a	green
56.5309	1.0	ITI	n/a	n/a	n/a	n/a	n/a	n/a	n/a	n/a
57.5308	0.5	FIXCROSS	n/a	n/a	n/a	n/a	n/a	n/a	n/a	n/a
58.0308	0.55	INK	7	Incongruent	niebieski	blue	czerwony	red	hit	n/a
58.5661	n/a	RESPONSE	n/a	n/a	n/a	n/a	n/a	n/a	n/a	red
58.5808	1.0	ITI	n/a	n/a	n/a	n/a	n/a	n/a	n/a	n/a
59.5808	0.5	FIXCROSS	n/a	n/a	n/a	n/a	n/a	n/a	n/a	n/a
60.0808	0.4167	INK	8	Incongruent	niebieski	blue	czerwony	red	hit	n/a
60.4847	n/a	RESPONSE	n/a	n/a	n/a	n/a	n/a	n/a	n/a	red
60.4974	1.0	ITI	n/a	n/a	n/a	n/a	n/a	n/a	n/a	n/a
61.4974	0.5	FIXCROSS	n/a	n/a	n/a	n/a	n/a	n/a	n/a	n/a
61.9974	0.4667	INK	9	Neutral	xxxxxxx	xxxxxxx	niebieski	blue	hit	n/a
62.4514	n/a	RESPONSE	n/a	n/a	n/a	n/a	n/a	n/a	n/a	blue
62.4641	1.0	ITI	n/a	n/a	n/a	n/a	n/a	n/a	n/a	n/a
63.464	0.5	FIXCROSS	n/a	n/a	n/a	n/a	n/a	n/a	n/a	n/a
63.964	0.4667	INK	10	Incongruent	zielony	green	żółty	yellow	hit	n/a
64.418	n/a	RESPONSE	n/a	n/a	n/a	n/a	n/a	n/a	n/a	yellow
64.4307	1.0	ITI	n/a	n/a	n/a	n/a	n/a	n/a	n/a	n/a
65.4307	0.5	FIXCROSS	n/a	n/a	n/a	n/a	n/a	n/a	n/a	n/a
65.9307	0.3666	INK	11	Neutral	xxxxxxxx	xxxxxxxx	zielony	green	hit	n/a
66.2887	n/a	RESPONSE	n/a	n/a	n/a	n/a	n/a	n/a	n/a	green
66.2973	1.0	ITI	n/a	n/a	n/a	n/a	n/a	n/a	n/a	n/a
67.2973	0.5	FIXCROSS	n/a	n/a	n/a	n/a	n/a	n/a	n/a	n/a
67.7973	0.4666	INK	12	Neutral	xxxxxxxx	xxxxxxxx	żółty	yellow	hit	n/a
68.2552	n/a	RESPONSE	n/a	n/a	n/a	n/a	n/a	n/a	n/a	yellow
68.2639	1.0	ITI	n/a	n/a	n/a	n/a	n/a	n/a	n/a	n/a
69.2639	0.5	FIXCROSS	n/a	n/a	n/a	n/a	n/a	n/a	n/a	n/a
69.7639	0.55	INK	13	Neutral	xxxxxxx	xxxxxxx	niebieski	blue	hit	n/a
70.3018	n/a	RESPONSE	n/a	n/a	n/a	n/a	n/a	n/a	n/a	blue
70.3139	1.0	ITI	n/a	n/a	n/a	n/a	n/a	n/a	n/a	n/a
71.3139	0.5	FIXCROSS	n/a	n/a	n/a	n/a	n/a	n/a	n/a	n/a
71.8139	0.4167	INK	14	Neutral	xxxxxxxx	xxxxxxxx	żółty	yellow	hit	n/a
72.2204	n/a	RESPONSE	n/a	n/a	n/a	n/a	n/a	n/a	n/a	yellow
72.2305	1.0	ITI	n/a	n/a	n/a	n/a	n/a	n/a	n/a	n/a
73.2305	0.5	FIXCROSS	n/a	n/a	n/a	n/a	n/a	n/a	n/a	n/a
73.7305	0.3667	INK	15	Neutral	xxxxxxxxx	xxxxxxxxx	żółty	yellow	hit	n/a
74.091	n/a	RESPONSE	n/a	n/a	n/a	n/a	n/a	n/a	n/a	yellow
74.0972	1.0	ITI	n/a	n/a	n/a	n/a	n/a	n/a	n/a	n/a
75.0971	0.5	FIXCROSS	n/a	n/a	n/a	n/a	n/a	n/a	n/a	n/a
75.5971	0.4167	INK	16	Neutral	xxxxx	xxxxx	niebieski	blue	hit	n/a
76.0096	n/a	RESPONSE	n/a	n/a	n/a	n/a	n/a	n/a	n/a	blue
76.0138	1.0	ITI	n/a	n/a	n/a	n/a	n/a	n/a	n/a	n/a
77.0138	0.5	FIXCROSS	n/a	n/a	n/a	n/a	n/a	n/a	n/a	n/a
77.5138	0.3667	INK	17	Neutral	xxxxx	xxxxx	niebieski	blue	hit	n/a
77.8643	n/a	RESPONSE	n/a	n/a	n/a	n/a	n/a	n/a	n/a	blue
77.8804	1.0	ITI	n/a	n/a	n/a	n/a	n/a	n/a	n/a	n/a
78.8804	0.5	FIXCROSS	n/a	n/a	n/a	n/a	n/a	n/a	n/a	n/a
79.3804	0.4167	INK	18	Incongruent	żółty	yellow	czerwony	red	hit	n/a
79.7829	n/a	RESPONSE	n/a	n/a	n/a	n/a	n/a	n/a	n/a	red
79.797	1.0	ITI	n/a	n/a	n/a	n/a	n/a	n/a	n/a	n/a
80.797	0.5	FIXCROSS	n/a	n/a	n/a	n/a	n/a	n/a	n/a	n/a
81.297	0.5333	INK	19	Neutral	xxxxx	xxxxx	zielony	green	hit	n/a
81.8136	n/a	RESPONSE	n/a	n/a	n/a	n/a	n/a	n/a	n/a	green
81.8303	1.0	ITI	n/a	n/a	n/a	n/a	n/a	n/a	n/a	n/a
82.8303	0.5	FIXCROSS	n/a	n/a	n/a	n/a	n/a	n/a	n/a	n/a
83.3303	0.45	INK	20	Incongruent	żółty	yellow	niebieski	blue	hit	n/a
83.764	n/a	RESPONSE	n/a	n/a	n/a	n/a	n/a	n/a	n/a	blue
83.7803	1.0	ITI	n/a	n/a	n/a	n/a	n/a	n/a	n/a	n/a
84.7803	0.5	FIXCROSS	n/a	n/a	n/a	n/a	n/a	n/a	n/a	n/a
85.2803	0.4667	INK	21	Neutral	xxxxxxxxx	xxxxxxxxx	żółty	yellow	hit	n/a
85.7306	n/a	RESPONSE	n/a	n/a	n/a	n/a	n/a	n/a	n/a	yellow
85.7469	1.0	ITI	n/a	n/a	n/a	n/a	n/a	n/a	n/a	n/a
86.7469	0.5	FIXCROSS	n/a	n/a	n/a	n/a	n/a	n/a	n/a	n/a
87.2469	0.4833	INK	22	Neutral	xxxxxxxxx	xxxxxxxxx	zielony	green	hit	n/a
87.7132	n/a	RESPONSE	n/a	n/a	n/a	n/a	n/a	n/a	n/a	green
87.7302	1.0	ITI	n/a	n/a	n/a	n/a	n/a	n/a	n/a	n/a
88.7302	0.5	FIXCROSS	n/a	n/a	n/a	n/a	n/a	n/a	n/a	n/a
89.2302	0.4167	INK	23	Neutral	xxxxxxxx	xxxxxxxx	zielony	green	hit	n/a
89.6319	n/a	RESPONSE	n/a	n/a	n/a	n/a	n/a	n/a	n/a	green
89.6469	1.0	ITI	n/a	n/a	n/a	n/a	n/a	n/a	n/a	n/a
90.6468	0.5	FIXCROSS	n/a	n/a	n/a	n/a	n/a	n/a	n/a	n/a
91.1468	0.45	INK	24	Neutral	xxxxx	xxxxx	zielony	green	hit	n/a
91.5825	n/a	RESPONSE	n/a	n/a	n/a	n/a	n/a	n/a	n/a	green
91.5968	1.0	ITI	n/a	n/a	n/a	n/a	n/a	n/a	n/a	n/a
92.5968	0.5	FIXCROSS	n/a	n/a	n/a	n/a	n/a	n/a	n/a	n/a
93.0968	0.5333	INK	25	Neutral	xxxxxxx	xxxxxxx	czerwony	red	hit	n/a
93.6129	n/a	RESPONSE	n/a	n/a	n/a	n/a	n/a	n/a	n/a	red
93.6301	1.0	ITI	n/a	n/a	n/a	n/a	n/a	n/a	n/a	n/a
94.6301	0.5	FIXCROSS	n/a	n/a	n/a	n/a	n/a	n/a	n/a	n/a
95.1301	0.5	INK	26	Incongruent	czerwony	red	żółty	yellow	hit	n/a
95.6116	n/a	RESPONSE	n/a	n/a	n/a	n/a	n/a	n/a	n/a	yellow
95.6301	1.0	ITI	n/a	n/a	n/a	n/a	n/a	n/a	n/a	n/a
96.63	0.5	FIXCROSS	n/a	n/a	n/a	n/a	n/a	n/a	n/a	n/a
97.13	0.6	INK	27	Neutral	xxxxxxxxx	xxxxxxxxx	czerwony	red	hit	n/a
97.7221	n/a	RESPONSE	n/a	n/a	n/a	n/a	n/a	n/a	n/a	red
97.73	1.0	ITI	n/a	n/a	n/a	n/a	n/a	n/a	n/a	n/a
98.73	0.5	FIXCROSS	n/a	n/a	n/a	n/a	n/a	n/a	n/a	n/a
99.23	0.5333	INK	28	Neutral	xxxxxxxxx	xxxxxxxxx	zielony	green	hit	n/a
99.7526	n/a	RESPONSE	n/a	n/a	n/a	n/a	n/a	n/a	n/a	green
99.7633	1.0	ITI	n/a	n/a	n/a	n/a	n/a	n/a	n/a	n/a
100.7633	0.5	FIXCROSS	n/a	n/a	n/a	n/a	n/a	n/a	n/a	n/a
101.2633	0.5333	INK	29	Incongruent	zielony	green	niebieski	blue	hit	n/a
101.7831	n/a	RESPONSE	n/a	n/a	n/a	n/a	n/a	n/a	n/a	blue
101.7966	1.0	ITI	n/a	n/a	n/a	n/a	n/a	n/a	n/a	n/a
102.7966	0.5	FIXCROSS	n/a	n/a	n/a	n/a	n/a	n/a	n/a	n/a
103.2966	0.5833	INK	30	Incongruent	czerwony	red	zielony	green	hit	n/a
103.8616	n/a	RESPONSE	n/a	n/a	n/a	n/a	n/a	n/a	n/a	green
103.8799	1.0	ITI	n/a	n/a	n/a	n/a	n/a	n/a	n/a	n/a
104.8799	0.5	FIXCROSS	n/a	n/a	n/a	n/a	n/a	n/a	n/a	n/a
105.3799	0.55	INK	31	Neutral	xxxxx	xxxxx	niebieski	blue	hit	n/a
105.9241	n/a	RESPONSE	n/a	n/a	n/a	n/a	n/a	n/a	n/a	blue
105.9298	1.0	ITI	n/a	n/a	n/a	n/a	n/a	n/a	n/a	n/a
106.9298	0.5	FIXCROSS	n/a	n/a	n/a	n/a	n/a	n/a	n/a	n/a
107.4298	0.4333	INK	32	Incongruent	czerwony	red	niebieski	blue	hit	n/a
107.8587	n/a	RESPONSE	n/a	n/a	n/a	n/a	n/a	n/a	n/a	blue
107.8631	1.0	ITI	n/a	n/a	n/a	n/a	n/a	n/a	n/a	n/a
108.8631	0.5	FIXCROSS	n/a	n/a	n/a	n/a	n/a	n/a	n/a	n/a
109.3631	0.4833	INK	33	Incongruent	żółty	yellow	czerwony	red	hit	n/a
109.8413	n/a	RESPONSE	n/a	n/a	n/a	n/a	n/a	n/a	n/a	red
109.8464	1.0	ITI	n/a	n/a	n/a	n/a	n/a	n/a	n/a	n/a
110.8464	0.5	FIXCROSS	n/a	n/a	n/a	n/a	n/a	n/a	n/a	n/a
111.3464	0.6333	INK	34	Neutral	xxxxxxx	xxxxxxx	żółty	yellow	hit	n/a
111.9678	n/a	RESPONSE	n/a	n/a	n/a	n/a	n/a	n/a	n/a	yellow
111.9797	1.0	ITI	n/a	n/a	n/a	n/a	n/a	n/a	n/a	n/a
112.9797	0.5	FIXCROSS	n/a	n/a	n/a	n/a	n/a	n/a	n/a	n/a
113.4797	0.5833	INK	35	Incongruent	zielony	green	czerwony	red	hit	n/a
114.0463	n/a	RESPONSE	n/a	n/a	n/a	n/a	n/a	n/a	n/a	red
114.063	1.0	ITI	n/a	n/a	n/a	n/a	n/a	n/a	n/a	n/a
115.063	0.5	FIXCROSS	n/a	n/a	n/a	n/a	n/a	n/a	n/a	n/a
115.563	0.4167	INK	36	Neutral	xxxxxxx	xxxxxxx	czerwony	red	hit	n/a
115.9649	n/a	RESPONSE	n/a	n/a	n/a	n/a	n/a	n/a	n/a	red
115.9797	1.0	ITI	n/a	n/a	n/a	n/a	n/a	n/a	n/a	n/a
116.9796	0.5	FIXCROSS	n/a	n/a	n/a	n/a	n/a	n/a	n/a	n/a
117.4796	0.3833	INK	37	Neutral	xxxxx	xxxxx	czerwony	red	hit	n/a
117.8517	n/a	RESPONSE	n/a	n/a	n/a	n/a	n/a	n/a	n/a	red
117.8629	1.0	ITI	n/a	n/a	n/a	n/a	n/a	n/a	n/a	n/a
118.8629	0.5	FIXCROSS	n/a	n/a	n/a	n/a	n/a	n/a	n/a	n/a
119.3629	0.4166	INK	38	Neutral	xxxxxxxx	xxxxxxxx	niebieski	blue	hit	n/a
119.7702	n/a	RESPONSE	n/a	n/a	n/a	n/a	n/a	n/a	n/a	blue
119.7796	1.0	ITI	n/a	n/a	n/a	n/a	n/a	n/a	n/a	n/a
120.7795	0.5	FIXCROSS	n/a	n/a	n/a	n/a	n/a	n/a	n/a	n/a
121.2795	0.5167	INK	39	Incongruent	niebieski	blue	zielony	green	hit	n/a
121.7847	n/a	RESPONSE	n/a	n/a	n/a	n/a	n/a	n/a	n/a	green
121.7962	1.0	ITI	n/a	n/a	n/a	n/a	n/a	n/a	n/a	n/a
122.7962	0.5	FIXCROSS	n/a	n/a	n/a	n/a	n/a	n/a	n/a	n/a
123.2962	0.5167	INK	40	Incongruent	żółty	yellow	niebieski	blue	hit	n/a
123.7994	n/a	RESPONSE	n/a	n/a	n/a	n/a	n/a	n/a	n/a	blue
123.8128	1.0	ITI	n/a	n/a	n/a	n/a	n/a	n/a	n/a	n/a
124.8128	0.5	FIXCROSS	n/a	n/a	n/a	n/a	n/a	n/a	n/a	n/a
125.3128	0.6	INK	41	Incongruent	niebieski	blue	żółty	yellow	hit	n/a
125.9098	n/a	RESPONSE	n/a	n/a	n/a	n/a	n/a	n/a	n/a	yellow
125.9128	1.0	ITI	n/a	n/a	n/a	n/a	n/a	n/a	n/a	n/a
126.9128	0.5	FIXCROSS	n/a	n/a	n/a	n/a	n/a	n/a	n/a	n/a
127.4127	0.5	INK	42	Incongruent	czerwony	red	niebieski	blue	hit	n/a
127.9083	n/a	RESPONSE	n/a	n/a	n/a	n/a	n/a	n/a	n/a	blue
127.9127	1.0	ITI	n/a	n/a	n/a	n/a	n/a	n/a	n/a	n/a
128.9127	0.5	FIXCROSS	n/a	n/a	n/a	n/a	n/a	n/a	n/a	n/a
129.4127	0.55	INK	43	Neutral	xxxxxxxxx	xxxxxxxxx	czerwony	red	hit	n/a
129.9548	n/a	RESPONSE	n/a	n/a	n/a	n/a	n/a	n/a	n/a	red
129.9627	1.0	ITI	n/a	n/a	n/a	n/a	n/a	n/a	n/a	n/a
130.9627	0.5	FIXCROSS	n/a	n/a	n/a	n/a	n/a	n/a	n/a	n/a
131.4627	0.4833	INK	44	Neutral	xxxxxxxx	xxxxxxxx	zielony	green	hit	n/a
131.9374	n/a	RESPONSE	n/a	n/a	n/a	n/a	n/a	n/a	n/a	green
131.946	1.0	ITI	n/a	n/a	n/a	n/a	n/a	n/a	n/a	n/a
132.946	0.5	FIXCROSS	n/a	n/a	n/a	n/a	n/a	n/a	n/a	n/a
133.446	0.5166	INK	45	Incongruent	żółty	yellow	niebieski	blue	hit	n/a
133.952	n/a	RESPONSE	n/a	n/a	n/a	n/a	n/a	n/a	n/a	blue
133.9626	1.0	ITI	n/a	n/a	n/a	n/a	n/a	n/a	n/a	n/a
134.9626	0.5	FIXCROSS	n/a	n/a	n/a	n/a	n/a	n/a	n/a	n/a
135.4626	0.5167	INK	46	Neutral	xxxxxxx	xxxxxxx	czerwony	red	hit	n/a
135.9665	n/a	RESPONSE	n/a	n/a	n/a	n/a	n/a	n/a	n/a	red
135.9792	1.0	ITI	n/a	n/a	n/a	n/a	n/a	n/a	n/a	n/a
136.9792	0.5	FIXCROSS	n/a	n/a	n/a	n/a	n/a	n/a	n/a	n/a
137.4792	0.45	INK	47	Incongruent	żółty	yellow	czerwony	red	hit	n/a
137.9171	n/a	RESPONSE	n/a	n/a	n/a	n/a	n/a	n/a	n/a	red
137.9292	1.0	ITI	n/a	n/a	n/a	n/a	n/a	n/a	n/a	n/a
138.9292	0.5	FIXCROSS	n/a	n/a	n/a	n/a	n/a	n/a	n/a	n/a
139.4292	0.5167	INK	48	Neutral	xxxxx	xxxxx	zielony	green	incorrect	n/a
139.9317	n/a	RESPONSE	n/a	n/a	n/a	n/a	n/a	n/a	n/a	yellow
139.9458	1.0	ITI	n/a	n/a	n/a	n/a	n/a	n/a	n/a	n/a
140.0275	n/a	RESPONSE	n/a	n/a	n/a	n/a	n/a	n/a	n/a	green
140.9458	0.5	FIXCROSS	n/a	n/a	n/a	n/a	n/a	n/a	n/a	n/a
141.4458	0.5	INK	49	Neutral	xxxxxxx	xxxxxxx	żółty	yellow	hit	n/a
141.9302	n/a	RESPONSE	n/a	n/a	n/a	n/a	n/a	n/a	n/a	yellow
141.9458	1.0	ITI	n/a	n/a	n/a	n/a	n/a	n/a	n/a	n/a
142.9458	0.5	FIXCROSS	n/a	n/a	n/a	n/a	n/a	n/a	n/a	n/a
143.4458	0.8166	INK	50	Incongruent	żółty	yellow	zielony	green	hit	n/a
144.2485	n/a	RESPONSE	n/a	n/a	n/a	n/a	n/a	n/a	n/a	green
144.2624	1.0	ITI	n/a	n/a	n/a	n/a	n/a	n/a	n/a	n/a
145.2624	0.5	FIXCROSS	n/a	n/a	n/a	n/a	n/a	n/a	n/a	n/a
145.7624	0.5667	INK	51	Incongruent	zielony	green	czerwony	red	hit	n/a
146.3111	n/a	RESPONSE	n/a	n/a	n/a	n/a	n/a	n/a	n/a	red
146.329	1.0	ITI	n/a	n/a	n/a	n/a	n/a	n/a	n/a	n/a
147.329	0.5	FIXCROSS	n/a	n/a	n/a	n/a	n/a	n/a	n/a	n/a
147.829	0.4333	INK	52	Incongruent	zielony	green	czerwony	red	hit	n/a
148.2458	n/a	RESPONSE	n/a	n/a	n/a	n/a	n/a	n/a	n/a	red
148.2623	1.0	ITI	n/a	n/a	n/a	n/a	n/a	n/a	n/a	n/a
149.2623	0.5	FIXCROSS	n/a	n/a	n/a	n/a	n/a	n/a	n/a	n/a
149.7623	0.4667	INK	53	Incongruent	zielony	green	niebieski	blue	hit	n/a
150.2124	n/a	RESPONSE	n/a	n/a	n/a	n/a	n/a	n/a	n/a	blue
150.229	1.0	ITI	n/a	n/a	n/a	n/a	n/a	n/a	n/a	n/a
151.2289	0.5	FIXCROSS	n/a	n/a	n/a	n/a	n/a	n/a	n/a	n/a
151.7289	0.5333	INK	54	Incongruent	zielony	green	żółty	yellow	hit	n/a
152.2588	n/a	RESPONSE	n/a	n/a	n/a	n/a	n/a	n/a	n/a	yellow
152.2622	1.0	ITI	n/a	n/a	n/a	n/a	n/a	n/a	n/a	n/a
153.2622	0.5	FIXCROSS	n/a	n/a	n/a	n/a	n/a	n/a	n/a	n/a
153.7622	0.4	INK	55	Neutral	xxxxxxxxx	xxxxxxxxx	zielony	green	hit	n/a
154.1454	n/a	RESPONSE	n/a	n/a	n/a	n/a	n/a	n/a	n/a	green
154.1622	1.0	ITI	n/a	n/a	n/a	n/a	n/a	n/a	n/a	n/a
155.1622	0.5	FIXCROSS	n/a	n/a	n/a	n/a	n/a	n/a	n/a	n/a
155.6622	0.4833	INK	56	Neutral	xxxxxxx	xxxxxxx	żółty	yellow	hit	n/a
156.128	n/a	RESPONSE	n/a	n/a	n/a	n/a	n/a	n/a	n/a	yellow
156.1455	1.0	ITI	n/a	n/a	n/a	n/a	n/a	n/a	n/a	n/a
157.1455	0.5	FIXCROSS	n/a	n/a	n/a	n/a	n/a	n/a	n/a	n/a
157.6455	0.4167	INK	57	Incongruent	żółty	yellow	zielony	green	hit	n/a
158.0467	n/a	RESPONSE	n/a	n/a	n/a	n/a	n/a	n/a	n/a	green
158.0621	1.0	ITI	n/a	n/a	n/a	n/a	n/a	n/a	n/a	n/a
159.0621	0.5	FIXCROSS	n/a	n/a	n/a	n/a	n/a	n/a	n/a	n/a
159.5621	0.4333	INK	58	Incongruent	niebieski	blue	zielony	green	hit	n/a
159.9813	n/a	RESPONSE	n/a	n/a	n/a	n/a	n/a	n/a	n/a	green
159.9954	1.0	ITI	n/a	n/a	n/a	n/a	n/a	n/a	n/a	n/a
160.9954	0.5	FIXCROSS	n/a	n/a	n/a	n/a	n/a	n/a	n/a	n/a
161.4954	0.4333	INK	59	Neutral	xxxxxxxx	xxxxxxxx	niebieski	blue	hit	n/a
161.9159	n/a	RESPONSE	n/a	n/a	n/a	n/a	n/a	n/a	n/a	blue
161.9287	1.0	ITI	n/a	n/a	n/a	n/a	n/a	n/a	n/a	n/a
162.9287	0.5	FIXCROSS	n/a	n/a	n/a	n/a	n/a	n/a	n/a	n/a
163.4287	0.3667	INK	60	Neutral	xxxxxxxx	xxxxxxxx	niebieski	blue	hit	n/a
163.7866	n/a	RESPONSE	n/a	n/a	n/a	n/a	n/a	n/a	n/a	blue
163.7953	1.0	ITI	n/a	n/a	n/a	n/a	n/a	n/a	n/a	n/a
164.7953	0.5	FIXCROSS	n/a	n/a	n/a	n/a	n/a	n/a	n/a	n/a
165.2953	0.4833	INK	61	Incongruent	niebieski	blue	żółty	yellow	hit	n/a
165.7692	n/a	RESPONSE	n/a	n/a	n/a	n/a	n/a	n/a	n/a	yellow
165.7786	1.0	ITI	n/a	n/a	n/a	n/a	n/a	n/a	n/a	n/a
166.7786	0.5	FIXCROSS	n/a	n/a	n/a	n/a	n/a	n/a	n/a	n/a
167.2786	0.6333	INK	62	Incongruent	czerwony	red	zielony	green	hit	n/a
167.8956	n/a	RESPONSE	n/a	n/a	n/a	n/a	n/a	n/a	n/a	green
167.9119	1.0	ITI	n/a	n/a	n/a	n/a	n/a	n/a	n/a	n/a
168.9119	0.5	FIXCROSS	n/a	n/a	n/a	n/a	n/a	n/a	n/a	n/a
169.4119	0.5167	INK	63	Neutral	xxxxxxxx	xxxxxxxx	żółty	yellow	hit	n/a
169.9102	n/a	RESPONSE	n/a	n/a	n/a	n/a	n/a	n/a	n/a	yellow
169.9286	1.0	ITI	n/a	n/a	n/a	n/a	n/a	n/a	n/a	n/a
170.9285	0.5	FIXCROSS	n/a	n/a	n/a	n/a	n/a	n/a	n/a	n/a
171.4285	0.4833	INK	64	Neutral	xxxxxxxxx	xxxxxxxxx	żółty	yellow	hit	n/a
171.9088	n/a	RESPONSE	n/a	n/a	n/a	n/a	n/a	n/a	n/a	yellow
171.9118	1.0	ITI	n/a	n/a	n/a	n/a	n/a	n/a	n/a	n/a
172.9118	0.5	FIXCROSS	n/a	n/a	n/a	n/a	n/a	n/a	n/a	n/a
173.4118	0.4833	INK	65	Incongruent	zielony	green	niebieski	blue	hit	n/a
173.8914	n/a	RESPONSE	n/a	n/a	n/a	n/a	n/a	n/a	n/a	blue
173.8951	1.0	ITI	n/a	n/a	n/a	n/a	n/a	n/a	n/a	n/a
174.8951	0.4999	FIXCROSS	n/a	n/a	n/a	n/a	n/a	n/a	n/a	n/a
175.395	0.5001	INK	66	Incongruent	niebieski	blue	czerwony	red	hit	n/a
175.8899	n/a	RESPONSE	n/a	n/a	n/a	n/a	n/a	n/a	n/a	red
175.8951	1.0	ITI	n/a	n/a	n/a	n/a	n/a	n/a	n/a	n/a
176.8951	0.5	FIXCROSS	n/a	n/a	n/a	n/a	n/a	n/a	n/a	n/a
177.3951	0.4667	INK	67	Incongruent	zielony	green	żółty	yellow	hit	n/a
177.8565	n/a	RESPONSE	n/a	n/a	n/a	n/a	n/a	n/a	n/a	yellow
177.8617	1.0	ITI	n/a	n/a	n/a	n/a	n/a	n/a	n/a	n/a
178.8617	0.5	FIXCROSS	n/a	n/a	n/a	n/a	n/a	n/a	n/a	n/a
179.3617	0.6	INK	68	Neutral	xxxxx	xxxxx	czerwony	red	hit	n/a
179.951	n/a	RESPONSE	n/a	n/a	n/a	n/a	n/a	n/a	n/a	red
179.9617	1.0	ITI	n/a	n/a	n/a	n/a	n/a	n/a	n/a	n/a
180.9617	0.5	FIXCROSS	n/a	n/a	n/a	n/a	n/a	n/a	n/a	n/a
181.4617	0.5166	INK	69	Incongruent	niebieski	blue	żółty	yellow	hit	n/a
181.9654	n/a	RESPONSE	n/a	n/a	n/a	n/a	n/a	n/a	n/a	yellow
181.9783	1.0	ITI	n/a	n/a	n/a	n/a	n/a	n/a	n/a	n/a
182.9783	0.5	FIXCROSS	n/a	n/a	n/a	n/a	n/a	n/a	n/a	n/a
183.4783	0.5	INK	70	Incongruent	czerwony	red	żółty	yellow	hit	n/a
183.964	n/a	RESPONSE	n/a	n/a	n/a	n/a	n/a	n/a	n/a	yellow
183.9783	1.0	ITI	n/a	n/a	n/a	n/a	n/a	n/a	n/a	n/a
184.9782	0.5	FIXCROSS	n/a	n/a	n/a	n/a	n/a	n/a	n/a	n/a
185.4782	0.4	INK	71	Neutral	xxxxxxx	xxxxxxx	niebieski	blue	hit	n/a
185.8667	n/a	RESPONSE	n/a	n/a	n/a	n/a	n/a	n/a	n/a	blue
185.8782	1.0	ITI	n/a	n/a	n/a	n/a	n/a	n/a	n/a	n/a
186.8782	0.5	FIXCROSS	n/a	n/a	n/a	n/a	n/a	n/a	n/a	n/a
187.3782	0.4833	INK	72	Neutral	xxxxx	xxxxx	czerwony	red	hit	n/a
187.8493	n/a	RESPONSE	n/a	n/a	n/a	n/a	n/a	n/a	n/a	red
187.8615	1.0333	ITI	n/a	n/a	n/a	n/a	n/a	n/a	n/a	n/a
217.9238	n/a	RESPONSE	n/a	n/a	n/a	n/a	n/a	n/a	n/a	n/a
217.9609	1.0	ITI	n/a	n/a	n/a	n/a	n/a	n/a	n/a	n/a
218.9609	0.5	FIXCROSS	n/a	n/a	n/a	n/a	n/a	n/a	n/a	n/a
219.4609	0.8666	T_COLOR_NAME	1	Incongruent	zielony	green	niebieski	blue	hit	n/a
220.3221	n/a	RESPONSE	n/a	n/a	n/a	n/a	n/a	n/a	n/a	green
220.3275	0.5	FEEDBACK	n/a	n/a	n/a	n/a	n/a	n/a	n/a	n/a
220.8275	1.0	ITI	n/a	n/a	n/a	n/a	n/a	n/a	n/a	n/a
221.8275	0.5	FIXCROSS	n/a	n/a	n/a	n/a	n/a	n/a	n/a	n/a
222.3275	1.3	T_COLOR_NAME	2	Neutral	czerwony	red	Neutral	Neutral	hit	n/a
223.6157	n/a	RESPONSE	n/a	n/a	n/a	n/a	n/a	n/a	n/a	red
223.6275	0.5	FEEDBACK	n/a	n/a	n/a	n/a	n/a	n/a	n/a	n/a
224.1275	1.0	ITI	n/a	n/a	n/a	n/a	n/a	n/a	n/a	n/a
225.1274	0.5	FIXCROSS	n/a	n/a	n/a	n/a	n/a	n/a	n/a	n/a
225.6274	0.7333	T_COLOR_NAME	3	Incongruent	żółty	yellow	zielony	green	hit	n/a
226.3497	n/a	RESPONSE	n/a	n/a	n/a	n/a	n/a	n/a	n/a	yellow
226.3607	0.5	FEEDBACK	n/a	n/a	n/a	n/a	n/a	n/a	n/a	n/a
226.8607	1.0	ITI	n/a	n/a	n/a	n/a	n/a	n/a	n/a	n/a
227.8607	0.5	FIXCROSS	n/a	n/a	n/a	n/a	n/a	n/a	n/a	n/a
228.3607	0.5667	T_COLOR_NAME	4	Neutral	niebieski	blue	Neutral	Neutral	hit	n/a
228.9078	n/a	RESPONSE	n/a	n/a	n/a	n/a	n/a	n/a	n/a	blue
228.9274	0.5	FEEDBACK	n/a	n/a	n/a	n/a	n/a	n/a	n/a	n/a
229.4273	1.0	ITI	n/a	n/a	n/a	n/a	n/a	n/a	n/a	n/a
230.4273	0.5	FIXCROSS	n/a	n/a	n/a	n/a	n/a	n/a	n/a	n/a
230.9273	1.2666	T_COLOR_NAME	5	Incongruent	niebieski	blue	żółty	yellow	hit	n/a
232.1855	n/a	RESPONSE	n/a	n/a	n/a	n/a	n/a	n/a	n/a	blue
232.194	0.5	FEEDBACK	n/a	n/a	n/a	n/a	n/a	n/a	n/a	n/a
232.694	1.0	ITI	n/a	n/a	n/a	n/a	n/a	n/a	n/a	n/a
233.6939	0.5	FIXCROSS	n/a	n/a	n/a	n/a	n/a	n/a	n/a	n/a
234.1939	0.6167	T_COLOR_NAME	6	Neutral	czerwony	red	Neutral	Neutral	hit	n/a
234.7916	n/a	RESPONSE	n/a	n/a	n/a	n/a	n/a	n/a	n/a	red
234.8106	0.5	FEEDBACK	n/a	n/a	n/a	n/a	n/a	n/a	n/a	n/a
235.3106	1.0	ITI	n/a	n/a	n/a	n/a	n/a	n/a	n/a	n/a
236.3105	0.5	FIXCROSS	n/a	n/a	n/a	n/a	n/a	n/a	n/a	n/a
236.8105	0.75	T_COLOR_NAME	7	Incongruent	żółty	yellow	niebieski	blue	hit	n/a
237.5416	n/a	RESPONSE	n/a	n/a	n/a	n/a	n/a	n/a	n/a	yellow
237.5605	0.5	FEEDBACK	n/a	n/a	n/a	n/a	n/a	n/a	n/a	n/a
238.0605	1.0	ITI	n/a	n/a	n/a	n/a	n/a	n/a	n/a	n/a
239.0605	0.5	FIXCROSS	n/a	n/a	n/a	n/a	n/a	n/a	n/a	n/a
239.5605	0.7833	T_COLOR_NAME	8	Incongruent	czerwony	red	zielony	green	hit	n/a
240.3232	n/a	RESPONSE	n/a	n/a	n/a	n/a	n/a	n/a	n/a	red
240.3438	0.5	FEEDBACK	n/a	n/a	n/a	n/a	n/a	n/a	n/a	n/a
240.8438	1.0	ITI	n/a	n/a	n/a	n/a	n/a	n/a	n/a	n/a
241.8438	0.5	FIXCROSS	n/a	n/a	n/a	n/a	n/a	n/a	n/a	n/a
242.3437	0.4833	T_COLOR_NAME	9	Incongruent	czerwony	red	żółty	yellow	hit	n/a
242.8174	n/a	RESPONSE	n/a	n/a	n/a	n/a	n/a	n/a	n/a	red
242.8271	0.5	FEEDBACK	n/a	n/a	n/a	n/a	n/a	n/a	n/a	n/a
243.3271	1.0	ITI	n/a	n/a	n/a	n/a	n/a	n/a	n/a	n/a
244.3271	0.5	FIXCROSS	n/a	n/a	n/a	n/a	n/a	n/a	n/a	n/a
244.827	0.7167	T_COLOR_NAME	10	Neutral	zielony	green	Neutral	Neutral	hit	n/a
245.5356	n/a	RESPONSE	n/a	n/a	n/a	n/a	n/a	n/a	n/a	green
245.5437	0.5	FEEDBACK	n/a	n/a	n/a	n/a	n/a	n/a	n/a	n/a
246.0437	1.0	ITI	n/a	n/a	n/a	n/a	n/a	n/a	n/a	n/a
247.0437	0.5	FIXCROSS	n/a	n/a	n/a	n/a	n/a	n/a	n/a	n/a
247.5437	0.7833	T_COLOR_NAME	11	Incongruent	żółty	yellow	czerwony	red	hit	n/a
248.3175	n/a	RESPONSE	n/a	n/a	n/a	n/a	n/a	n/a	n/a	yellow
248.327	0.5	FEEDBACK	n/a	n/a	n/a	n/a	n/a	n/a	n/a	n/a
248.827	1.0	ITI	n/a	n/a	n/a	n/a	n/a	n/a	n/a	n/a
249.8269	0.5	FIXCROSS	n/a	n/a	n/a	n/a	n/a	n/a	n/a	n/a
250.3269	0.6166	T_COLOR_NAME	12	Neutral	niebieski	blue	Neutral	Neutral	hit	n/a
250.9236	n/a	RESPONSE	n/a	n/a	n/a	n/a	n/a	n/a	n/a	blue
250.9436	0.5	FEEDBACK	n/a	n/a	n/a	n/a	n/a	n/a	n/a	n/a
251.4436	1.0	ITI	n/a	n/a	n/a	n/a	n/a	n/a	n/a	n/a
255.6563	n/a	RESPONSE	n/a	n/a	n/a	n/a	n/a	n/a	n/a	n/a
255.6768	1.0	ITI	n/a	n/a	n/a	n/a	n/a	n/a	n/a	n/a
256.6768	0.5	FIXCROSS	n/a	n/a	n/a	n/a	n/a	n/a	n/a	n/a
257.1768	0.7	COLOR_NAME	1	Neutral	czerwony	red	Neutral	Neutral	hit	n/a
257.8627	n/a	RESPONSE	n/a	n/a	n/a	n/a	n/a	n/a	n/a	red
257.8768	1.0	ITI	n/a	n/a	n/a	n/a	n/a	n/a	n/a	n/a
258.8768	0.5	FIXCROSS	n/a	n/a	n/a	n/a	n/a	n/a	n/a	n/a
259.3767	0.45	COLOR_NAME	2	Incongruent	niebieski	blue	żółty	yellow	hit	n/a
259.8133	n/a	RESPONSE	n/a	n/a	n/a	n/a	n/a	n/a	n/a	blue
259.8267	1.0	ITI	n/a	n/a	n/a	n/a	n/a	n/a	n/a	n/a
260.8267	0.5	FIXCROSS	n/a	n/a	n/a	n/a	n/a	n/a	n/a	n/a
261.3267	0.7166	COLOR_NAME	3	Incongruent	czerwony	red	żółty	yellow	hit	n/a
262.0356	n/a	RESPONSE	n/a	n/a	n/a	n/a	n/a	n/a	n/a	red
262.0433	1.0	ITI	n/a	n/a	n/a	n/a	n/a	n/a	n/a	n/a
263.0433	0.5	FIXCROSS	n/a	n/a	n/a	n/a	n/a	n/a	n/a	n/a
263.5433	0.75	COLOR_NAME	4	Neutral	zielony	green	Neutral	Neutral	hit	n/a
264.2741	n/a	RESPONSE	n/a	n/a	n/a	n/a	n/a	n/a	n/a	green
264.2933	1.0	ITI	n/a	n/a	n/a	n/a	n/a	n/a	n/a	n/a
265.2933	0.5	FIXCROSS	n/a	n/a	n/a	n/a	n/a	n/a	n/a	n/a
265.7933	0.75	COLOR_NAME	5	Incongruent	czerwony	red	niebieski	blue	hit	n/a
266.5285	n/a	RESPONSE	n/a	n/a	n/a	n/a	n/a	n/a	n/a	red
266.5433	1.0	ITI	n/a	n/a	n/a	n/a	n/a	n/a	n/a	n/a
267.5432	0.5	FIXCROSS	n/a	n/a	n/a	n/a	n/a	n/a	n/a	n/a
268.0432	0.5	COLOR_NAME	6	Incongruent	czerwony	red	niebieski	blue	hit	n/a
268.527	n/a	RESPONSE	n/a	n/a	n/a	n/a	n/a	n/a	n/a	red
268.5432	1.0	ITI	n/a	n/a	n/a	n/a	n/a	n/a	n/a	n/a
269.5432	0.5	FIXCROSS	n/a	n/a	n/a	n/a	n/a	n/a	n/a	n/a
270.0432	0.4833	COLOR_NAME	7	Neutral	niebieski	blue	Neutral	Neutral	hit	n/a
270.5096	n/a	RESPONSE	n/a	n/a	n/a	n/a	n/a	n/a	n/a	blue
270.5265	1.0	ITI	n/a	n/a	n/a	n/a	n/a	n/a	n/a	n/a
271.5265	0.5	FIXCROSS	n/a	n/a	n/a	n/a	n/a	n/a	n/a	n/a
272.0265	0.5833	COLOR_NAME	8	Neutral	żółty	yellow	Neutral	Neutral	hit	n/a
272.604	n/a	RESPONSE	n/a	n/a	n/a	n/a	n/a	n/a	n/a	yellow
272.6098	1.0	ITI	n/a	n/a	n/a	n/a	n/a	n/a	n/a	n/a
273.6098	0.5	FIXCROSS	n/a	n/a	n/a	n/a	n/a	n/a	n/a	n/a
274.1098	0.5833	COLOR_NAME	9	Neutral	czerwony	red	Neutral	Neutral	hit	n/a
274.6826	n/a	RESPONSE	n/a	n/a	n/a	n/a	n/a	n/a	n/a	red
274.6931	1.0	ITI	n/a	n/a	n/a	n/a	n/a	n/a	n/a	n/a
275.6931	0.5	FIXCROSS	n/a	n/a	n/a	n/a	n/a	n/a	n/a	n/a
276.1931	0.55	COLOR_NAME	10	Incongruent	czerwony	red	zielony	green	hit	n/a
276.7292	n/a	RESPONSE	n/a	n/a	n/a	n/a	n/a	n/a	n/a	red
276.7431	1.0	ITI	n/a	n/a	n/a	n/a	n/a	n/a	n/a	n/a
277.743	0.5	FIXCROSS	n/a	n/a	n/a	n/a	n/a	n/a	n/a	n/a
278.243	0.4333	COLOR_NAME	11	Neutral	czerwony	red	Neutral	Neutral	hit	n/a
278.6639	n/a	RESPONSE	n/a	n/a	n/a	n/a	n/a	n/a	n/a	red
278.6763	1.0	ITI	n/a	n/a	n/a	n/a	n/a	n/a	n/a	n/a
279.6763	0.5	FIXCROSS	n/a	n/a	n/a	n/a	n/a	n/a	n/a	n/a
280.1763	0.6333	COLOR_NAME	12	Incongruent	żółty	yellow	zielony	green	hit	n/a
280.7902	n/a	RESPONSE	n/a	n/a	n/a	n/a	n/a	n/a	n/a	yellow
280.8096	1.0	ITI	n/a	n/a	n/a	n/a	n/a	n/a	n/a	n/a
281.8096	0.5	FIXCROSS	n/a	n/a	n/a	n/a	n/a	n/a	n/a	n/a
282.3096	0.5	COLOR_NAME	13	Incongruent	niebieski	blue	zielony	green	hit	n/a
282.8049	n/a	RESPONSE	n/a	n/a	n/a	n/a	n/a	n/a	n/a	blue
282.8096	1.0	ITI	n/a	n/a	n/a	n/a	n/a	n/a	n/a	n/a
283.8096	0.5	FIXCROSS	n/a	n/a	n/a	n/a	n/a	n/a	n/a	n/a
284.3096	0.4667	COLOR_NAME	14	Neutral	niebieski	blue	Neutral	Neutral	hit	n/a
284.7715	n/a	RESPONSE	n/a	n/a	n/a	n/a	n/a	n/a	n/a	blue
284.7762	1.0	ITI	n/a	n/a	n/a	n/a	n/a	n/a	n/a	n/a
285.7762	0.5	FIXCROSS	n/a	n/a	n/a	n/a	n/a	n/a	n/a	n/a
286.2762	0.6	COLOR_NAME	15	Incongruent	żółty	yellow	niebieski	blue	hit	n/a
286.8659	n/a	RESPONSE	n/a	n/a	n/a	n/a	n/a	n/a	n/a	yellow
286.8762	1.0	ITI	n/a	n/a	n/a	n/a	n/a	n/a	n/a	n/a
287.8762	0.5	FIXCROSS	n/a	n/a	n/a	n/a	n/a	n/a	n/a	n/a
288.3761	0.75	COLOR_NAME	16	Incongruent	zielony	green	niebieski	blue	hit	n/a
289.1202	n/a	RESPONSE	n/a	n/a	n/a	n/a	n/a	n/a	n/a	green
289.1261	1.0	ITI	n/a	n/a	n/a	n/a	n/a	n/a	n/a	n/a
290.1261	0.5	FIXCROSS	n/a	n/a	n/a	n/a	n/a	n/a	n/a	n/a
290.6261	0.5667	COLOR_NAME	17	Neutral	żółty	yellow	Neutral	Neutral	hit	n/a
291.1829	n/a	RESPONSE	n/a	n/a	n/a	n/a	n/a	n/a	n/a	yellow
291.1928	1.0	ITI	n/a	n/a	n/a	n/a	n/a	n/a	n/a	n/a
292.1927	0.5	FIXCROSS	n/a	n/a	n/a	n/a	n/a	n/a	n/a	n/a
292.6927	0.6	COLOR_NAME	18	Incongruent	czerwony	red	żółty	yellow	hit	n/a
293.2774	n/a	RESPONSE	n/a	n/a	n/a	n/a	n/a	n/a	n/a	red
293.2927	1.0	ITI	n/a	n/a	n/a	n/a	n/a	n/a	n/a	n/a
294.2927	0.5	FIXCROSS	n/a	n/a	n/a	n/a	n/a	n/a	n/a	n/a
294.7927	0.4333	COLOR_NAME	19	Incongruent	niebieski	blue	żółty	yellow	hit	n/a
295.212	n/a	RESPONSE	n/a	n/a	n/a	n/a	n/a	n/a	n/a	blue
295.226	1.0	ITI	n/a	n/a	n/a	n/a	n/a	n/a	n/a	n/a
296.226	0.5	FIXCROSS	n/a	n/a	n/a	n/a	n/a	n/a	n/a	n/a
296.726	0.7333	COLOR_NAME	20	Neutral	czerwony	red	Neutral	Neutral	hit	n/a
297.4503	n/a	RESPONSE	n/a	n/a	n/a	n/a	n/a	n/a	n/a	red
297.4593	1.0	ITI	n/a	n/a	n/a	n/a	n/a	n/a	n/a	n/a
298.4593	0.5	FIXCROSS	n/a	n/a	n/a	n/a	n/a	n/a	n/a	n/a
298.9593	0.5	COLOR_NAME	21	Neutral	niebieski	blue	Neutral	Neutral	hit	n/a
299.4489	n/a	RESPONSE	n/a	n/a	n/a	n/a	n/a	n/a	n/a	blue
299.4593	1.0	ITI	n/a	n/a	n/a	n/a	n/a	n/a	n/a	n/a
300.4593	0.5	FIXCROSS	n/a	n/a	n/a	n/a	n/a	n/a	n/a	n/a
300.9592	0.4667	COLOR_NAME	22	Incongruent	niebieski	blue	czerwony	red	hit	n/a
301.4156	n/a	RESPONSE	n/a	n/a	n/a	n/a	n/a	n/a	n/a	blue
301.4259	1.0	ITI	n/a	n/a	n/a	n/a	n/a	n/a	n/a	n/a
302.4259	0.5	FIXCROSS	n/a	n/a	n/a	n/a	n/a	n/a	n/a	n/a
302.9259	0.6333	COLOR_NAME	23	Incongruent	zielony	green	żółty	yellow	incorrect	n/a
303.5421	n/a	RESPONSE	n/a	n/a	n/a	n/a	n/a	n/a	n/a	yellow
303.5592	1.0	ITI	n/a	n/a	n/a	n/a	n/a	n/a	n/a	n/a
304.5592	0.5	FIXCROSS	n/a	n/a	n/a	n/a	n/a	n/a	n/a	n/a
305.0592	0.75	COLOR_NAME	24	Incongruent	żółty	yellow	czerwony	red	hit	n/a
305.7964	n/a	RESPONSE	n/a	n/a	n/a	n/a	n/a	n/a	n/a	yellow
305.8091	1.0	ITI	n/a	n/a	n/a	n/a	n/a	n/a	n/a	n/a
306.8091	0.5	FIXCROSS	n/a	n/a	n/a	n/a	n/a	n/a	n/a	n/a
307.3091	0.5167	COLOR_NAME	25	Incongruent	żółty	yellow	czerwony	red	hit	n/a
307.811	n/a	RESPONSE	n/a	n/a	n/a	n/a	n/a	n/a	n/a	yellow
307.8258	1.0	ITI	n/a	n/a	n/a	n/a	n/a	n/a	n/a	n/a
308.8257	0.5	FIXCROSS	n/a	n/a	n/a	n/a	n/a	n/a	n/a	n/a
309.3257	0.65	COLOR_NAME	26	Neutral	czerwony	red	Neutral	Neutral	hit	n/a
309.9695	n/a	RESPONSE	n/a	n/a	n/a	n/a	n/a	n/a	n/a	red
309.9757	1.0	ITI	n/a	n/a	n/a	n/a	n/a	n/a	n/a	n/a
310.9757	0.5	FIXCROSS	n/a	n/a	n/a	n/a	n/a	n/a	n/a	n/a
311.4757	0.4167	COLOR_NAME	27	Neutral	niebieski	blue	Neutral	Neutral	hit	n/a
311.8881	n/a	RESPONSE	n/a	n/a	n/a	n/a	n/a	n/a	n/a	blue
311.8923	1.0	ITI	n/a	n/a	n/a	n/a	n/a	n/a	n/a	n/a
312.8923	0.5	FIXCROSS	n/a	n/a	n/a	n/a	n/a	n/a	n/a	n/a
313.3923	0.75	COLOR_NAME	28	Incongruent	czerwony	red	zielony	green	hit	n/a
314.1265	n/a	RESPONSE	n/a	n/a	n/a	n/a	n/a	n/a	n/a	red
314.1423	1.0	ITI	n/a	n/a	n/a	n/a	n/a	n/a	n/a	n/a
315.1423	0.5	FIXCROSS	n/a	n/a	n/a	n/a	n/a	n/a	n/a	n/a
315.6423	0.4833	COLOR_NAME	29	Incongruent	czerwony	red	żółty	yellow	hit	n/a
316.109	n/a	RESPONSE	n/a	n/a	n/a	n/a	n/a	n/a	n/a	red
316.1256	1.0	ITI	n/a	n/a	n/a	n/a	n/a	n/a	n/a	n/a
317.1256	0.5	FIXCROSS	n/a	n/a	n/a	n/a	n/a	n/a	n/a	n/a
317.6256	0.6	COLOR_NAME	30	Neutral	zielony	green	Neutral	Neutral	hit	n/a
318.2195	n/a	RESPONSE	n/a	n/a	n/a	n/a	n/a	n/a	n/a	green
318.2256	1.0	ITI	n/a	n/a	n/a	n/a	n/a	n/a	n/a	n/a
319.2255	0.5	FIXCROSS	n/a	n/a	n/a	n/a	n/a	n/a	n/a	n/a
319.7255	0.6166	COLOR_NAME	31	Incongruent	czerwony	red	niebieski	blue	hit	n/a
320.33	n/a	RESPONSE	n/a	n/a	n/a	n/a	n/a	n/a	n/a	red
320.3422	1.0	ITI	n/a	n/a	n/a	n/a	n/a	n/a	n/a	n/a
321.3422	0.5	FIXCROSS	n/a	n/a	n/a	n/a	n/a	n/a	n/a	n/a
321.8421	0.4833	COLOR_NAME	32	Neutral	niebieski	blue	Neutral	Neutral	hit	n/a
322.3126	n/a	RESPONSE	n/a	n/a	n/a	n/a	n/a	n/a	n/a	blue
322.3255	1.0	ITI	n/a	n/a	n/a	n/a	n/a	n/a	n/a	n/a
323.3254	0.5	FIXCROSS	n/a	n/a	n/a	n/a	n/a	n/a	n/a	n/a
323.8254	0.5166	COLOR_NAME	33	Incongruent	niebieski	blue	czerwony	red	incorrect	n/a
324.3271	n/a	RESPONSE	n/a	n/a	n/a	n/a	n/a	n/a	n/a	red
324.3421	1.0	ITI	n/a	n/a	n/a	n/a	n/a	n/a	n/a	n/a
325.3421	0.5	FIXCROSS	n/a	n/a	n/a	n/a	n/a	n/a	n/a	n/a
325.8421	0.5333	COLOR_NAME	34	Neutral	czerwony	red	Neutral	Neutral	hit	n/a
326.3577	n/a	RESPONSE	n/a	n/a	n/a	n/a	n/a	n/a	n/a	red
326.3754	1.0	ITI	n/a	n/a	n/a	n/a	n/a	n/a	n/a	n/a
327.3754	0.5	FIXCROSS	n/a	n/a	n/a	n/a	n/a	n/a	n/a	n/a
327.8754	0.55	COLOR_NAME	35	Neutral	żółty	yellow	Neutral	Neutral	hit	n/a
328.4202	n/a	RESPONSE	n/a	n/a	n/a	n/a	n/a	n/a	n/a	yellow
328.4253	1.0	ITI	n/a	n/a	n/a	n/a	n/a	n/a	n/a	n/a
329.4253	0.5	FIXCROSS	n/a	n/a	n/a	n/a	n/a	n/a	n/a	n/a
329.9253	0.8166	COLOR_NAME	36	Neutral	zielony	green	Neutral	Neutral	hit	n/a
330.7226	n/a	RESPONSE	n/a	n/a	n/a	n/a	n/a	n/a	n/a	green
330.742	1.0	ITI	n/a	n/a	n/a	n/a	n/a	n/a	n/a	n/a
331.7419	0.5	FIXCROSS	n/a	n/a	n/a	n/a	n/a	n/a	n/a	n/a
332.2419	0.5833	COLOR_NAME	37	Neutral	niebieski	blue	Neutral	Neutral	hit	n/a
332.8171	n/a	RESPONSE	n/a	n/a	n/a	n/a	n/a	n/a	n/a	blue
332.8253	1.0	ITI	n/a	n/a	n/a	n/a	n/a	n/a	n/a	n/a
333.8252	0.5	FIXCROSS	n/a	n/a	n/a	n/a	n/a	n/a	n/a	n/a
334.3252	0.6833	COLOR_NAME	38	Neutral	żółty	yellow	Neutral	Neutral	hit	n/a
334.9915	n/a	RESPONSE	n/a	n/a	n/a	n/a	n/a	n/a	n/a	yellow
335.0085	1.0	ITI	n/a	n/a	n/a	n/a	n/a	n/a	n/a	n/a
336.0085	0.5	FIXCROSS	n/a	n/a	n/a	n/a	n/a	n/a	n/a	n/a
336.5085	0.5667	COLOR_NAME	39	Neutral	niebieski	blue	Neutral	Neutral	hit	n/a
337.07	n/a	RESPONSE	n/a	n/a	n/a	n/a	n/a	n/a	n/a	blue
337.0752	1.0	ITI	n/a	n/a	n/a	n/a	n/a	n/a	n/a	n/a
338.0751	0.5	FIXCROSS	n/a	n/a	n/a	n/a	n/a	n/a	n/a	n/a
338.5751	0.6167	COLOR_NAME	40	Neutral	żółty	yellow	Neutral	Neutral	hit	n/a
339.1805	n/a	RESPONSE	n/a	n/a	n/a	n/a	n/a	n/a	n/a	yellow
339.1918	1.0	ITI	n/a	n/a	n/a	n/a	n/a	n/a	n/a	n/a
340.1918	0.5	FIXCROSS	n/a	n/a	n/a	n/a	n/a	n/a	n/a	n/a
340.6918	0.7166	COLOR_NAME	41	Incongruent	zielony	green	żółty	yellow	incorrect	n/a
341.4028	n/a	RESPONSE	n/a	n/a	n/a	n/a	n/a	n/a	n/a	red
341.4084	1.0	ITI	n/a	n/a	n/a	n/a	n/a	n/a	n/a	n/a
342.4084	0.5	FIXCROSS	n/a	n/a	n/a	n/a	n/a	n/a	n/a	n/a
342.9084	0.7833	COLOR_NAME	42	Neutral	żółty	yellow	Neutral	Neutral	hit	n/a
343.6733	n/a	RESPONSE	n/a	n/a	n/a	n/a	n/a	n/a	n/a	yellow
343.6917	1.0	ITI	n/a	n/a	n/a	n/a	n/a	n/a	n/a	n/a
344.6917	0.5	FIXCROSS	n/a	n/a	n/a	n/a	n/a	n/a	n/a	n/a
345.1917	0.7833	COLOR_NAME	43	Incongruent	zielony	green	czerwony	red	hit	n/a
345.9597	n/a	RESPONSE	n/a	n/a	n/a	n/a	n/a	n/a	n/a	green
345.975	1.0	ITI	n/a	n/a	n/a	n/a	n/a	n/a	n/a	n/a
346.975	0.5	FIXCROSS	n/a	n/a	n/a	n/a	n/a	n/a	n/a	n/a
347.475	0.6167	COLOR_NAME	44	Incongruent	żółty	yellow	zielony	green	hit	n/a
348.0861	n/a	RESPONSE	n/a	n/a	n/a	n/a	n/a	n/a	n/a	yellow
348.0916	1.0	ITI	n/a	n/a	n/a	n/a	n/a	n/a	n/a	n/a
349.0916	0.5	FIXCROSS	n/a	n/a	n/a	n/a	n/a	n/a	n/a	n/a
349.5916	0.5167	COLOR_NAME	45	Incongruent	niebieski	blue	zielony	green	hit	n/a
350.1007	n/a	RESPONSE	n/a	n/a	n/a	n/a	n/a	n/a	n/a	blue
350.1082	1.0	ITI	n/a	n/a	n/a	n/a	n/a	n/a	n/a	n/a
351.1082	0.5	FIXCROSS	n/a	n/a	n/a	n/a	n/a	n/a	n/a	n/a
351.6082	0.6	COLOR_NAME	46	Incongruent	czerwony	red	zielony	green	hit	n/a
352.1952	n/a	RESPONSE	n/a	n/a	n/a	n/a	n/a	n/a	n/a	red
352.2082	1.0	ITI	n/a	n/a	n/a	n/a	n/a	n/a	n/a	n/a
353.2082	0.5	FIXCROSS	n/a	n/a	n/a	n/a	n/a	n/a	n/a	n/a
353.7082	0.4667	COLOR_NAME	47	Neutral	czerwony	red	Neutral	Neutral	hit	n/a
354.1618	n/a	RESPONSE	n/a	n/a	n/a	n/a	n/a	n/a	n/a	red
354.1748	1.0	ITI	n/a	n/a	n/a	n/a	n/a	n/a	n/a	n/a
355.1748	0.5	FIXCROSS	n/a	n/a	n/a	n/a	n/a	n/a	n/a	n/a
355.6748	0.5833	COLOR_NAME	48	Incongruent	niebieski	blue	zielony	green	hit	n/a
356.2403	n/a	RESPONSE	n/a	n/a	n/a	n/a	n/a	n/a	n/a	blue
356.2581	1.0	ITI	n/a	n/a	n/a	n/a	n/a	n/a	n/a	n/a
357.2581	0.5	FIXCROSS	n/a	n/a	n/a	n/a	n/a	n/a	n/a	n/a
357.7581	0.5166	COLOR_NAME	49	Neutral	niebieski	blue	Neutral	Neutral	hit	n/a
358.2708	n/a	RESPONSE	n/a	n/a	n/a	n/a	n/a	n/a	n/a	blue
358.2747	1.0	ITI	n/a	n/a	n/a	n/a	n/a	n/a	n/a	n/a
359.2747	0.5	FIXCROSS	n/a	n/a	n/a	n/a	n/a	n/a	n/a	n/a
359.7747	0.65	COLOR_NAME	50	Incongruent	żółty	yellow	niebieski	blue	hit	n/a
360.4133	n/a	RESPONSE	n/a	n/a	n/a	n/a	n/a	n/a	n/a	yellow
360.4247	1.0	ITI	n/a	n/a	n/a	n/a	n/a	n/a	n/a	n/a
361.4247	0.5	FIXCROSS	n/a	n/a	n/a	n/a	n/a	n/a	n/a	n/a
361.9247	0.6333	COLOR_NAME	51	Neutral	czerwony	red	Neutral	Neutral	hit	n/a
362.5399	n/a	RESPONSE	n/a	n/a	n/a	n/a	n/a	n/a	n/a	red
362.558	1.0	ITI	n/a	n/a	n/a	n/a	n/a	n/a	n/a	n/a
363.558	0.5	FIXCROSS	n/a	n/a	n/a	n/a	n/a	n/a	n/a	n/a
364.058	0.5	COLOR_NAME	52	Neutral	niebieski	blue	Neutral	Neutral	hit	n/a
364.5544	n/a	RESPONSE	n/a	n/a	n/a	n/a	n/a	n/a	n/a	blue
364.5579	1.0	ITI	n/a	n/a	n/a	n/a	n/a	n/a	n/a	n/a
365.5579	0.5	FIXCROSS	n/a	n/a	n/a	n/a	n/a	n/a	n/a	n/a
366.0579	0.6833	COLOR_NAME	53	Neutral	żółty	yellow	Neutral	Neutral	hit	n/a
366.7289	n/a	RESPONSE	n/a	n/a	n/a	n/a	n/a	n/a	n/a	yellow
366.7412	1.0	ITI	n/a	n/a	n/a	n/a	n/a	n/a	n/a	n/a
367.7412	0.5	FIXCROSS	n/a	n/a	n/a	n/a	n/a	n/a	n/a	n/a
368.2412	0.7	COLOR_NAME	54	Neutral	zielony	green	Neutral	Neutral	hit	n/a
368.9353	n/a	RESPONSE	n/a	n/a	n/a	n/a	n/a	n/a	n/a	green
368.9412	1.0	ITI	n/a	n/a	n/a	n/a	n/a	n/a	n/a	n/a
369.9412	0.5	FIXCROSS	n/a	n/a	n/a	n/a	n/a	n/a	n/a	n/a
370.4412	0.6333	COLOR_NAME	55	Incongruent	zielony	green	czerwony	red	hit	n/a
371.0618	n/a	RESPONSE	n/a	n/a	n/a	n/a	n/a	n/a	n/a	green
371.0745	1.0	ITI	n/a	n/a	n/a	n/a	n/a	n/a	n/a	n/a
372.0745	0.5	FIXCROSS	n/a	n/a	n/a	n/a	n/a	n/a	n/a	n/a
372.5745	0.4667	COLOR_NAME	56	Neutral	zielony	green	Neutral	Neutral	hit	n/a
373.0283	n/a	RESPONSE	n/a	n/a	n/a	n/a	n/a	n/a	n/a	green
373.0411	1.0	ITI	n/a	n/a	n/a	n/a	n/a	n/a	n/a	n/a
374.0411	0.5	FIXCROSS	n/a	n/a	n/a	n/a	n/a	n/a	n/a	n/a
374.5411	0.3833	COLOR_NAME	57	Incongruent	zielony	green	żółty	yellow	hit	n/a
374.915	n/a	RESPONSE	n/a	n/a	n/a	n/a	n/a	n/a	n/a	green
374.9244	1.0	ITI	n/a	n/a	n/a	n/a	n/a	n/a	n/a	n/a
375.9244	0.5	FIXCROSS	n/a	n/a	n/a	n/a	n/a	n/a	n/a	n/a
376.4244	0.4	COLOR_NAME	58	Incongruent	zielony	green	czerwony	red	hit	n/a
376.8176	n/a	RESPONSE	n/a	n/a	n/a	n/a	n/a	n/a	n/a	green
376.8244	1.0	ITI	n/a	n/a	n/a	n/a	n/a	n/a	n/a	n/a
377.8244	0.5	FIXCROSS	n/a	n/a	n/a	n/a	n/a	n/a	n/a	n/a
378.3243	0.5666	COLOR_NAME	59	Neutral	czerwony	red	Neutral	Neutral	hit	n/a
378.8803	n/a	RESPONSE	n/a	n/a	n/a	n/a	n/a	n/a	n/a	red
378.891	1.0	ITI	n/a	n/a	n/a	n/a	n/a	n/a	n/a	n/a
379.891	0.5	FIXCROSS	n/a	n/a	n/a	n/a	n/a	n/a	n/a	n/a
380.391	0.7167	COLOR_NAME	60	Incongruent	żółty	yellow	zielony	green	hit	n/a
381.1026	n/a	RESPONSE	n/a	n/a	n/a	n/a	n/a	n/a	n/a	yellow
381.1076	1.0	ITI	n/a	n/a	n/a	n/a	n/a	n/a	n/a	n/a
382.1076	0.5	FIXCROSS	n/a	n/a	n/a	n/a	n/a	n/a	n/a	n/a
382.6076	0.5833	COLOR_NAME	61	Incongruent	niebieski	blue	czerwony	red	hit	n/a
383.1811	n/a	RESPONSE	n/a	n/a	n/a	n/a	n/a	n/a	n/a	blue
383.1909	1.0	ITI	n/a	n/a	n/a	n/a	n/a	n/a	n/a	n/a
384.1909	0.5	FIXCROSS	n/a	n/a	n/a	n/a	n/a	n/a	n/a	n/a
384.6909	0.4833	COLOR_NAME	62	Incongruent	niebieski	blue	żółty	yellow	hit	n/a
385.1637	n/a	RESPONSE	n/a	n/a	n/a	n/a	n/a	n/a	n/a	blue
385.1742	1.0	ITI	n/a	n/a	n/a	n/a	n/a	n/a	n/a	n/a
386.1742	0.5	FIXCROSS	n/a	n/a	n/a	n/a	n/a	n/a	n/a	n/a
386.6742	0.6833	COLOR_NAME	63	Incongruent	zielony	green	niebieski	blue	hit	n/a
387.3381	n/a	RESPONSE	n/a	n/a	n/a	n/a	n/a	n/a	n/a	green
387.3575	1.0	ITI	n/a	n/a	n/a	n/a	n/a	n/a	n/a	n/a
388.3575	0.5	FIXCROSS	n/a	n/a	n/a	n/a	n/a	n/a	n/a	n/a
388.8574	0.65	COLOR_NAME	64	Neutral	żółty	yellow	Neutral	Neutral	hit	n/a
389.4965	n/a	RESPONSE	n/a	n/a	n/a	n/a	n/a	n/a	n/a	yellow
389.5074	1.0	ITI	n/a	n/a	n/a	n/a	n/a	n/a	n/a	n/a
390.5074	0.5	FIXCROSS	n/a	n/a	n/a	n/a	n/a	n/a	n/a	n/a
391.0074	0.45	COLOR_NAME	65	Neutral	żółty	yellow	Neutral	Neutral	hit	n/a
391.4471	n/a	RESPONSE	n/a	n/a	n/a	n/a	n/a	n/a	n/a	yellow
391.4574	1.0	ITI	n/a	n/a	n/a	n/a	n/a	n/a	n/a	n/a
392.4574	0.5	FIXCROSS	n/a	n/a	n/a	n/a	n/a	n/a	n/a	n/a
392.9574	0.3833	COLOR_NAME	66	Incongruent	żółty	yellow	niebieski	blue	hit	n/a
393.3339	n/a	RESPONSE	n/a	n/a	n/a	n/a	n/a	n/a	n/a	yellow
393.3407	1.0	ITI	n/a	n/a	n/a	n/a	n/a	n/a	n/a	n/a
394.3407	0.5	FIXCROSS	n/a	n/a	n/a	n/a	n/a	n/a	n/a	n/a
394.8407	0.7333	COLOR_NAME	67	Neutral	zielony	green	Neutral	Neutral	hit	n/a
395.5563	n/a	RESPONSE	n/a	n/a	n/a	n/a	n/a	n/a	n/a	green
395.574	1.0	ITI	n/a	n/a	n/a	n/a	n/a	n/a	n/a	n/a
396.574	0.5	FIXCROSS	n/a	n/a	n/a	n/a	n/a	n/a	n/a	n/a
397.0739	0.4667	COLOR_NAME	68	Neutral	zielony	green	Neutral	Neutral	hit	n/a
397.5228	n/a	RESPONSE	n/a	n/a	n/a	n/a	n/a	n/a	n/a	green
397.5406	1.0	ITI	n/a	n/a	n/a	n/a	n/a	n/a	n/a	n/a
398.5406	0.5	FIXCROSS	n/a	n/a	n/a	n/a	n/a	n/a	n/a	n/a
399.0406	0.4167	COLOR_NAME	69	Neutral	zielony	green	Neutral	Neutral	hit	n/a
399.4414	n/a	RESPONSE	n/a	n/a	n/a	n/a	n/a	n/a	n/a	green
399.4572	1.0	ITI	n/a	n/a	n/a	n/a	n/a	n/a	n/a	n/a
400.4572	0.5	FIXCROSS	n/a	n/a	n/a	n/a	n/a	n/a	n/a	n/a
400.9572	0.7167	COLOR_NAME	70	Incongruent	żółty	yellow	czerwony	red	hit	n/a
401.6638	n/a	RESPONSE	n/a	n/a	n/a	n/a	n/a	n/a	n/a	yellow
401.6739	1.0	ITI	n/a	n/a	n/a	n/a	n/a	n/a	n/a	n/a
402.6738	0.5	FIXCROSS	n/a	n/a	n/a	n/a	n/a	n/a	n/a	n/a
403.1738	0.7333	COLOR_NAME	71	Neutral	zielony	green	Neutral	Neutral	hit	n/a
403.9022	n/a	RESPONSE	n/a	n/a	n/a	n/a	n/a	n/a	n/a	green
403.9071	1.0	ITI	n/a	n/a	n/a	n/a	n/a	n/a	n/a	n/a
404.9071	0.5	FIXCROSS	n/a	n/a	n/a	n/a	n/a	n/a	n/a	n/a
405.4071	0.6333	COLOR_NAME	72	Incongruent	zielony	green	niebieski	blue	hit	n/a
406.0288	n/a	RESPONSE	n/a	n/a	n/a	n/a	n/a	n/a	n/a	green
406.0404	1.0	ITI	n/a	n/a	n/a	n/a	n/a	n/a	n/a	n/a
410.9213	n/a	RESPONSE	n/a	n/a	n/a	n/a	n/a	n/a	n/a	n/a
