onset	duration	trial_type	braille_stimulus	targets	response_count
2.011	2.008	CUE_REST	n/a	n/a	n/a
7.012	1.008	FIXCROSS	n/a	n/a	n/a
13.062	1.008	FIXCROSS	n/a	n/a	n/a
21.12	2.008	CUE_6_DOT	n/a	n/a	n/a
26.12	1.008	FIXCROSS	n/a	n/a	n/a
27.137	5.008	6_DOT_DETECTION	USLLM	0	n/a
32.17	1.008	FIXCROSS	n/a	n/a	n/a
33.187	5.008	6_DOT_DETECTION	BAŁ#Ł	1	n/a
35.096	n/a	RESPONSE	n/a	n/a	1/1
38.22	1.008	FIXCROSS	n/a	n/a	n/a
39.236	5.009	6_DOT_DETECTION	#IŁPM	1	n/a
39.88	n/a	RESPONSE	n/a	n/a	1/1
44.27	1.008	FIXCROSS	n/a	n/a	n/a
45.286	5.009	6_DOT_DETECTION	BAT##	2	n/a
47.76	n/a	RESPONSE	n/a	n/a	1/2
50.32	1.008	FIXCROSS	n/a	n/a	n/a
51.337	5.008	6_DOT_DETECTION	LACIC	0	n/a
56.37	1.008	FIXCROSS	n/a	n/a	n/a
57.387	5.008	6_DOT_DETECTION	I#YUK	1	n/a
58.52	n/a	RESPONSE	n/a	n/a	1/1
62.42	1.008	FIXCROSS	n/a	n/a	n/a
63.437	5.008	6_DOT_DETECTION	IDY#K	1	n/a
65.416	n/a	RESPONSE	n/a	n/a	1/1
68.47	1.008	FIXCROSS	n/a	n/a	n/a
69.487	5.008	6_DOT_DETECTION	I#TUL	1	n/a
76.028	2.008	CUE_REST	n/a	n/a	n/a
82.528	1.008	FIXCROSS	n/a	n/a	n/a
88.578	1.008	FIXCROSS	n/a	n/a	n/a
95.637	2.008	CUE_6_DOT	n/a	n/a	n/a
100.637	1.008	FIXCROSS	n/a	n/a	n/a
101.653	5.009	6_DOT_DETECTION	#CYK#	2	n/a
103.24	n/a	RESPONSE	n/a	n/a	1/2
105.496	n/a	RESPONSE	n/a	n/a	2/2
106.687	1.008	FIXCROSS	n/a	n/a	n/a
107.703	5.008	6_DOT_DETECTION	BOI##	2	n/a
109.536	n/a	RESPONSE	n/a	n/a	1/2
110.256	n/a	RESPONSE	n/a	n/a	2/2
112.737	1.008	FIXCROSS	n/a	n/a	n/a
113.754	5.008	6_DOT_DETECTION	PM#LA	1	n/a
115.28	n/a	RESPONSE	n/a	n/a	1/1
118.787	1.008	FIXCROSS	n/a	n/a	n/a
119.803	5.009	6_DOT_DETECTION	O#KUP	1	n/a
120.696	n/a	RESPONSE	n/a	n/a	1/1
124.837	1.008	FIXCROSS	n/a	n/a	n/a
125.854	5.008	6_DOT_DETECTION	#PSY#	2	n/a
126.6	n/a	RESPONSE	n/a	n/a	1/2
128.776	n/a	RESPONSE	n/a	n/a	2/2
130.887	1.008	FIXCROSS	n/a	n/a	n/a
131.903	5.009	6_DOT_DETECTION	IE##T	2	n/a
133.296	n/a	RESPONSE	n/a	n/a	1/2
134.08	n/a	RESPONSE	n/a	n/a	2/2
136.937	1.008	FIXCROSS	n/a	n/a	n/a
137.953	5.009	6_DOT_DETECTION	##ŁAT	2	n/a
138.68	n/a	RESPONSE	n/a	n/a	1/2
139.336	n/a	RESPONSE	n/a	n/a	2/2
142.987	1.008	FIXCROSS	n/a	n/a	n/a
144.004	5.008	6_DOT_DETECTION	IEYYŁ	0	n/a
150.545	2.008	CUE_REST	n/a	n/a	n/a
155.045	1.008	FIXCROSS	n/a	n/a	n/a
161.095	1.008	FIXCROSS	n/a	n/a	n/a
168.654	2.008	CUE_6_DOT	n/a	n/a	n/a
175.154	1.008	FIXCROSS	n/a	n/a	n/a
176.17	5.008	6_DOT_DETECTION	PUŁTM	0	n/a
181.204	1.008	FIXCROSS	n/a	n/a	n/a
182.22	5.008	6_DOT_DETECTION	PAS##	2	n/a
184.36	n/a	RESPONSE	n/a	n/a	1/2
185.2	n/a	RESPONSE	n/a	n/a	2/2
187.254	1.008	FIXCROSS	n/a	n/a	n/a
188.27	5.009	6_DOT_DETECTION	#SIŁ#	2	n/a
189.136	n/a	RESPONSE	n/a	n/a	1/2
191.08	n/a	RESPONSE	n/a	n/a	2/2
193.304	1.008	FIXCROSS	n/a	n/a	n/a
194.32	5.009	6_DOT_DETECTION	#SOS#	2	n/a
194.92	n/a	RESPONSE	n/a	n/a	1/2
196.696	n/a	RESPONSE	n/a	n/a	2/2
199.354	1.008	FIXCROSS	n/a	n/a	n/a
200.37	5.008	6_DOT_DETECTION	##TOM	2	n/a
201.016	n/a	RESPONSE	n/a	n/a	1/2
201.856	n/a	RESPONSE	n/a	n/a	2/2
205.404	1.008	FIXCROSS	n/a	n/a	n/a
206.42	5.008	6_DOT_DETECTION	LLCSO	0	n/a
211.454	1.008	FIXCROSS	n/a	n/a	n/a
212.47	5.008	6_DOT_DETECTION	LUD#A	1	n/a
214.416	n/a	RESPONSE	n/a	n/a	1/1
217.504	1.008	FIXCROSS	n/a	n/a	n/a
218.52	5.008	6_DOT_DETECTION	##ALE	2	n/a
219.232	n/a	RESPONSE	n/a	n/a	1/2
219.936	n/a	RESPONSE	n/a	n/a	2/2
225.562	2.008	CUE_REST	n/a	n/a	n/a
229.562	1.008	FIXCROSS	n/a	n/a	n/a
235.612	1.008	FIXCROSS	n/a	n/a	n/a
243.67	2.008	CUE_6_DOT	n/a	n/a	n/a
249.67	1.008	FIXCROSS	n/a	n/a	n/a
250.687	5.008	6_DOT_DETECTION	ŁDKID	0	n/a
255.72	1.008	FIXCROSS	n/a	n/a	n/a
256.737	5.008	6_DOT_DETECTION	LIP##	2	n/a
258.632	n/a	RESPONSE	n/a	n/a	1/2
259.376	n/a	RESPONSE	n/a	n/a	2/2
261.771	1.008	FIXCROSS	n/a	n/a	n/a
262.787	5.008	6_DOT_DETECTION	TOP#C	1	n/a
265.192	n/a	RESPONSE	n/a	n/a	1/1
267.82	1.008	FIXCROSS	n/a	n/a	n/a
268.837	5.009	6_DOT_DETECTION	ŁL#BM	1	n/a
270.352	n/a	RESPONSE	n/a	n/a	1/1
273.871	1.008	FIXCROSS	n/a	n/a	n/a
274.887	5.008	6_DOT_DETECTION	##ŁOM	2	n/a
275.632	n/a	RESPONSE	n/a	n/a	1/2
276.616	n/a	RESPONSE	n/a	n/a	2/2
279.92	1.008	FIXCROSS	n/a	n/a	n/a
280.937	5.008	6_DOT_DETECTION	U#TŁA	1	n/a
282.312	n/a	RESPONSE	n/a	n/a	1/1
285.971	1.008	FIXCROSS	n/a	n/a	n/a
286.987	5.008	6_DOT_DETECTION	##BAS	2	n/a
288.296	n/a	RESPONSE	n/a	n/a	1/2
288.952	n/a	RESPONSE	n/a	n/a	2/2
292.021	1.008	FIXCROSS	n/a	n/a	n/a
293.037	5.008	6_DOT_DETECTION	PMSPB	0	n/a
299.079	2.008	CUE_REST	n/a	n/a	n/a
305.079	1.008	FIXCROSS	n/a	n/a	n/a
311.129	1.008	FIXCROSS	n/a	n/a	n/a
318.687	2.008	CUE_6_DOT	n/a	n/a	n/a
324.187	1.008	FIXCROSS	n/a	n/a	n/a
325.204	5.008	6_DOT_DETECTION	KOD#S	1	n/a
327.976	n/a	RESPONSE	n/a	n/a	1/1
330.237	1.008	FIXCROSS	n/a	n/a	n/a
331.254	5.008	6_DOT_DETECTION	IIOLD	0	n/a
336.287	1.008	FIXCROSS	n/a	n/a	n/a
337.304	5.008	6_DOT_DETECTION	LUK#C	1	n/a
339.112	n/a	RESPONSE	n/a	n/a	1/1
342.337	1.008	FIXCROSS	n/a	n/a	n/a
343.354	5.008	6_DOT_DETECTION	ICE#D	1	n/a
345.472	n/a	RESPONSE	n/a	n/a	1/1
348.387	1.008	FIXCROSS	n/a	n/a	n/a
349.404	5.008	6_DOT_DETECTION	DB#A#	2	n/a
350.976	n/a	RESPONSE	n/a	n/a	1/2
352.016	n/a	RESPONSE	n/a	n/a	2/2
354.437	1.008	FIXCROSS	n/a	n/a	n/a
355.454	5.008	6_DOT_DETECTION	AKŁKŁ	0	n/a
360.488	1.008	FIXCROSS	n/a	n/a	n/a
361.504	5.008	6_DOT_DETECTION	ŁBTŁB	0	n/a
366.537	1.008	FIXCROSS	n/a	n/a	n/a
367.554	5.008	6_DOT_DETECTION	IŁPDU	0	n/a
373.596	2.008	CUE_REST	n/a	n/a	n/a
380.596	1.008	FIXCROSS	n/a	n/a	n/a
386.646	1.008	FIXCROSS	n/a	n/a	n/a
393.704	2.008	CUE_6_DOT	n/a	n/a	n/a
398.704	1.008	FIXCROSS	n/a	n/a	n/a
399.721	5.008	6_DOT_DETECTION	LDCCE	0	n/a
404.754	1.008	FIXCROSS	n/a	n/a	n/a
405.771	5.008	6_DOT_DETECTION	UM#LD	1	n/a
407.352	n/a	RESPONSE	n/a	n/a	1/1
410.804	1.008	FIXCROSS	n/a	n/a	n/a
411.82	5.009	6_DOT_DETECTION	ŁYYŁT	0	n/a
413.752	n/a	RESPONSE	n/a	n/a	1/0
416.854	1.008	FIXCROSS	n/a	n/a	n/a
417.87	5.009	6_DOT_DETECTION	AŁUAI	0	n/a
422.904	1.008	FIXCROSS	n/a	n/a	n/a
423.921	5.008	6_DOT_DETECTION	KUL##	2	n/a
425.472	n/a	RESPONSE	n/a	n/a	1/2
426.152	n/a	RESPONSE	n/a	n/a	2/2
428.954	1.008	FIXCROSS	n/a	n/a	n/a
429.97	5.009	6_DOT_DETECTION	MTCUE	0	n/a
435.004	1.008	FIXCROSS	n/a	n/a	n/a
436.021	5.008	6_DOT_DETECTION	ŁLTŁP	0	n/a
441.054	1.008	FIXCROSS	n/a	n/a	n/a
442.071	5.008	6_DOT_DETECTION	L#OSY	1	n/a
