onset	duration	trial_type	melody_number	melody_part	key	sound	action
0.0	14.082	CUE_START	n/a	n/a	n/a	n/a	n/a
14.082	7.76	FIXCROSS	n/a	n/a	n/a	n/a	n/a
21.842	6.324	CUE_LISTEN	M1	1	n/a	n/a	n/a
28.166	7.758	FIXCROSS	n/a	n/a	n/a	n/a	n/a
35.924	6.317	CUE_PLAYBACK_RIGHT_HAND	M1	1	n/a	n/a	n/a
36.72	n/a	RESPONSE	M1	1	19	G4	press
37.216	n/a	RESPONSE	M1	1	19	G4	release
37.42	n/a	RESPONSE	M1	1	16	E4	press
37.708	n/a	RESPONSE	M1	1	16	E4	release
38.443	n/a	RESPONSE	M1	1	16	E4	press
38.782	n/a	RESPONSE	M1	1	16	E4	release
38.951	n/a	RESPONSE	M1	1	17	F4	press
39.406	n/a	RESPONSE	M1	1	17	F4	release
39.422	n/a	RESPONSE	M1	1	14	D4	press
39.704	n/a	RESPONSE	M1	1	14	D4	release
39.842	n/a	RESPONSE	M1	1	14	D4	press
40.228	n/a	RESPONSE	M1	1	14	D4	release
40.298	n/a	RESPONSE	M1	1	12	C4	press
40.591	n/a	RESPONSE	M1	1	16	E4	press
40.701	n/a	RESPONSE	M1	1	12	C4	release
40.866	n/a	RESPONSE	M1	1	16	E4	release
40.922	n/a	RESPONSE	M1	1	19	G4	press
41.363	n/a	RESPONSE	M1	1	19	G4	release
42.241	7.758	FIXCROSS	n/a	n/a	n/a	n/a	n/a
49.999	6.317	CUE_LISTEN	M1	2	n/a	n/a	n/a
56.316	7.758	FIXCROSS	n/a	n/a	n/a	n/a	n/a
64.074	6.325	CUE_PLAYBACK_RIGHT_HAND	M1	2	n/a	n/a	n/a
65.096	n/a	RESPONSE	M1	2	19	G4	press
65.537	n/a	RESPONSE	M1	2	19	G4	release
65.622	n/a	RESPONSE	M1	2	16	E4	press
65.976	n/a	RESPONSE	M1	2	16	E4	release
66.112	n/a	RESPONSE	M1	2	16	E4	press
66.506	n/a	RESPONSE	M1	2	16	E4	release
66.596	n/a	RESPONSE	M1	2	17	F4	press
67.181	n/a	RESPONSE	M1	2	14	D4	press
67.19	n/a	RESPONSE	M1	2	17	F4	release
67.438	n/a	RESPONSE	M1	2	14	D4	release
67.637	n/a	RESPONSE	M1	2	14	D4	press
68.027	n/a	RESPONSE	M1	2	14	D4	release
68.126	n/a	RESPONSE	M1	2	12	C4	press
68.346	n/a	RESPONSE	M1	2	16	E4	press
68.406	n/a	RESPONSE	M1	2	12	C4	release
68.595	n/a	RESPONSE	M1	2	12	C4	press
68.876	n/a	RESPONSE	M1	2	16	E4	release
69.195	n/a	RESPONSE	M1	2	12	C4	release
70.399	7.759	FIXCROSS	n/a	n/a	n/a	n/a	n/a
78.158	6.317	CUE_LISTEN	M1	1	n/a	n/a	n/a
84.474	7.758	FIXCROSS	n/a	n/a	n/a	n/a	n/a
92.233	6.317	CUE_PLAYBACK_BOTH_HANDS	M1	1	n/a	n/a	n/a
92.947	n/a	RESPONSE	M1	1	19	G4	press
92.95	n/a	RESPONSE	M1	1	07	G3	press
93.417	n/a	RESPONSE	M1	1	19	G4	release
93.46	n/a	RESPONSE	M1	1	04	E3	press
93.476	n/a	RESPONSE	M1	1	16	E4	press
93.533	n/a	RESPONSE	M1	1	07	G3	release
93.836	n/a	RESPONSE	M1	1	16	E4	release
93.933	n/a	RESPONSE	M1	1	16	E4	press
94.265	n/a	RESPONSE	M1	1	04	E3	release
94.267	n/a	RESPONSE	M1	1	16	E4	release
94.46	n/a	RESPONSE	M1	1	17	F4	press
94.462	n/a	RESPONSE	M1	1	05	F3	press
94.822	n/a	RESPONSE	M1	1	17	F4	release
94.906	n/a	RESPONSE	M1	1	05	F3	release
94.948	n/a	RESPONSE	M1	1	02	D3	press
94.963	n/a	RESPONSE	M1	1	14	D4	press
95.253	n/a	RESPONSE	M1	1	14	D4	release
95.31	n/a	RESPONSE	M1	1	02	D3	release
95.443	n/a	RESPONSE	M1	1	02	D3	press
95.467	n/a	RESPONSE	M1	1	14	D4	press
95.732	n/a	RESPONSE	M1	1	02	D3	release
95.766	n/a	RESPONSE	M1	1	14	D4	release
95.991	n/a	RESPONSE	M1	1	12	C4	press
95.993	n/a	RESPONSE	M1	1	00	C3	press
96.457	n/a	RESPONSE	M1	1	12	C4	release
96.616	n/a	RESPONSE	M1	1	12	C4	press
96.918	n/a	RESPONSE	M1	1	12	C4	release
97.023	n/a	RESPONSE	M1	1	04	E3	press
97.026	n/a	RESPONSE	M1	1	16	E4	press
97.101	n/a	RESPONSE	M1	1	00	C3	release
97.321	n/a	RESPONSE	M1	1	16	E4	release
97.426	n/a	RESPONSE	M1	1	04	E3	release
97.503	n/a	RESPONSE	M1	1	19	G4	press
97.518	n/a	RESPONSE	M1	1	07	G3	press
97.993	n/a	RESPONSE	M1	1	19	G4	release
98.125	n/a	RESPONSE	M1	1	07	G3	release
98.549	7.758	FIXCROSS	n/a	n/a	n/a	n/a	n/a
106.308	6.325	CUE_LISTEN	M1	2	n/a	n/a	n/a
112.633	7.758	FIXCROSS	n/a	n/a	n/a	n/a	n/a
120.391	6.317	CUE_PLAYBACK_BOTH_HANDS	M1	2	n/a	n/a	n/a
121.257	n/a	RESPONSE	M1	2	07	G3	press
121.26	n/a	RESPONSE	M1	2	19	G4	press
121.687	n/a	RESPONSE	M1	2	19	G4	release
121.73	n/a	RESPONSE	M1	2	07	G3	release
121.882	n/a	RESPONSE	M1	2	04	E3	press
121.911	n/a	RESPONSE	M1	2	16	E4	press
122.187	n/a	RESPONSE	M1	2	16	E4	release
122.202	n/a	RESPONSE	M1	2	04	E3	release
122.313	n/a	RESPONSE	M1	2	04	E3	press
122.328	n/a	RESPONSE	M1	2	16	E4	press
122.646	n/a	RESPONSE	M1	2	16	E4	release
122.743	n/a	RESPONSE	M1	2	04	E3	release
122.815	n/a	RESPONSE	M1	2	05	F3	press
122.83	n/a	RESPONSE	M1	2	17	F4	press
123.176	n/a	RESPONSE	M1	2	17	F4	release
123.188	n/a	RESPONSE	M1	2	05	F3	release
123.258	n/a	RESPONSE	M1	2	02	D3	press
123.287	n/a	RESPONSE	M1	2	14	D4	press
123.536	n/a	RESPONSE	M1	2	14	D4	release
123.621	n/a	RESPONSE	M1	2	02	D3	release
123.705	n/a	RESPONSE	M1	2	02	D3	press
123.707	n/a	RESPONSE	M1	2	14	D4	press
123.735	n/a	RESPONSE	M1	2	00	C3	press
123.903	n/a	RESPONSE	M1	2	02	D3	release
124.015	n/a	RESPONSE	M1	2	00	C3	release
124.083	n/a	RESPONSE	M1	2	14	D4	release
124.276	n/a	RESPONSE	M1	2	00	C3	press
124.291	n/a	RESPONSE	M1	2	12	C4	press
124.68	n/a	RESPONSE	M1	2	12	C4	release
124.696	n/a	RESPONSE	M1	2	00	C3	release
124.752	n/a	RESPONSE	M1	2	04	E3	press
124.766	n/a	RESPONSE	M1	2	16	E4	press
125.07	n/a	RESPONSE	M1	2	04	E3	release
125.085	n/a	RESPONSE	M1	2	16	E4	release
125.127	n/a	RESPONSE	M1	2	00	C3	press
125.142	n/a	RESPONSE	M1	2	12	C4	press
125.672	n/a	RESPONSE	M1	2	00	C3	release
125.718	n/a	RESPONSE	M1	2	12	C4	release
126.708	7.758	FIXCROSS	n/a	n/a	n/a	n/a	n/a
134.466	6.317	CUE_LISTEN	M1	1	n/a	n/a	n/a
140.783	7.758	FIXCROSS	n/a	n/a	n/a	n/a	n/a
148.541	6.325	CUE_PLAYBACK_RIGHT_HAND	M1	1	n/a	n/a	n/a
149.302	n/a	RESPONSE	M1	1	19	G4	press
149.736	n/a	RESPONSE	M1	1	19	G4	release
149.861	n/a	RESPONSE	M1	1	17	F4	press
150.261	n/a	RESPONSE	M1	1	17	F4	release
150.482	n/a	RESPONSE	M1	1	19	G4	press
150.91	n/a	RESPONSE	M1	1	19	G4	release
150.966	n/a	RESPONSE	M1	1	16	E4	press
151.256	n/a	RESPONSE	M1	1	16	E4	release
151.41	n/a	RESPONSE	M1	1	16	E4	press
151.755	n/a	RESPONSE	M1	1	16	E4	release
151.893	n/a	RESPONSE	M1	1	17	F4	press
152.238	n/a	RESPONSE	M1	1	17	F4	release
152.336	n/a	RESPONSE	M1	1	14	D4	press
152.612	n/a	RESPONSE	M1	1	14	D4	release
152.765	n/a	RESPONSE	M1	1	14	D4	press
153.166	n/a	RESPONSE	M1	1	14	D4	release
153.181	n/a	RESPONSE	M1	1	12	C4	press
153.442	n/a	RESPONSE	M1	1	16	E4	press
153.445	n/a	RESPONSE	M1	1	12	C4	release
153.693	n/a	RESPONSE	M1	1	16	E4	release
153.696	n/a	RESPONSE	M1	1	19	G4	press
154.191	n/a	RESPONSE	M1	1	19	G4	release
154.866	7.758	FIXCROSS	n/a	n/a	n/a	n/a	n/a
162.625	6.317	CUE_LISTEN	M1	2	n/a	n/a	n/a
168.941	7.758	FIXCROSS	n/a	n/a	n/a	n/a	n/a
176.7	6.317	CUE_PLAYBACK_RIGHT_HAND	M1	2	n/a	n/a	n/a
177.381	n/a	RESPONSE	M1	2	19	G4	press
177.781	n/a	RESPONSE	M1	2	19	G4	release
177.88	n/a	RESPONSE	M1	2	16	E4	press
178.151	n/a	RESPONSE	M1	2	16	E4	release
178.322	n/a	RESPONSE	M1	2	16	E4	press
178.601	n/a	RESPONSE	M1	2	16	E4	release
178.762	n/a	RESPONSE	M1	2	17	F4	press
179.144	n/a	RESPONSE	M1	2	17	F4	release
179.214	n/a	RESPONSE	M1	2	14	D4	press
179.506	n/a	RESPONSE	M1	2	14	D4	release
179.635	n/a	RESPONSE	M1	2	14	D4	press
179.952	n/a	RESPONSE	M1	2	14	D4	release
180.077	n/a	RESPONSE	M1	2	12	C4	press
180.367	n/a	RESPONSE	M1	2	16	E4	press
180.382	n/a	RESPONSE	M1	2	12	C4	release
180.631	n/a	RESPONSE	M1	2	12	C4	press
180.756	n/a	RESPONSE	M1	2	16	E4	release
181.145	n/a	RESPONSE	M1	2	12	C4	release
183.016	7.758	FIXCROSS	n/a	n/a	n/a	n/a	n/a
190.775	6.325	CUE_LISTEN	M1	1	n/a	n/a	n/a
197.1	7.758	FIXCROSS	n/a	n/a	n/a	n/a	n/a
204.858	6.317	CUE_PLAYBACK_BOTH_HANDS	M1	1	n/a	n/a	n/a
205.68	n/a	RESPONSE	M1	1	19	G4	press
205.688	n/a	RESPONSE	M1	1	07	G3	press
206.104	n/a	RESPONSE	M1	1	19	G4	release
206.194	n/a	RESPONSE	M1	1	07	G3	release
206.202	n/a	RESPONSE	M1	1	04	E3	press
206.211	n/a	RESPONSE	M1	1	16	E4	press
206.527	n/a	RESPONSE	M1	1	16	E4	release
206.552	n/a	RESPONSE	M1	1	04	E3	release
206.627	n/a	RESPONSE	M1	1	04	E3	press
206.651	n/a	RESPONSE	M1	1	16	E4	press
206.991	n/a	RESPONSE	M1	1	16	E4	release
206.998	n/a	RESPONSE	M1	1	04	E3	release
207.12	n/a	RESPONSE	M1	1	05	F3	press
207.136	n/a	RESPONSE	M1	1	17	F4	press
207.437	n/a	RESPONSE	M1	1	17	F4	release
207.501	n/a	RESPONSE	M1	1	05	F3	release
207.591	n/a	RESPONSE	M1	1	02	D3	press
207.615	n/a	RESPONSE	M1	1	14	D4	press
207.894	n/a	RESPONSE	M1	1	14	D4	release
207.935	n/a	RESPONSE	M1	1	02	D3	release
208.031	n/a	RESPONSE	M1	1	02	D3	press
208.056	n/a	RESPONSE	M1	1	14	D4	press
208.394	n/a	RESPONSE	M1	1	02	D3	release
208.411	n/a	RESPONSE	M1	1	14	D4	release
208.516	n/a	RESPONSE	M1	1	00	C3	press
208.547	n/a	RESPONSE	M1	1	12	C4	press
208.901	n/a	RESPONSE	M1	1	12	C4	release
208.904	n/a	RESPONSE	M1	1	00	C3	release
208.958	n/a	RESPONSE	M1	1	16	E4	press
208.974	n/a	RESPONSE	M1	1	04	E3	press
209.196	n/a	RESPONSE	M1	1	16	E4	release
209.237	n/a	RESPONSE	M1	1	04	E3	release
209.335	n/a	RESPONSE	M1	1	07	G3	press
209.337	n/a	RESPONSE	M1	1	19	G4	press
209.84	n/a	RESPONSE	M1	1	19	G4	release
209.868	n/a	RESPONSE	M1	1	07	G3	release
211.175	7.758	FIXCROSS	n/a	n/a	n/a	n/a	n/a
218.933	6.325	CUE_LISTEN	M1	2	n/a	n/a	n/a
225.258	7.758	FIXCROSS	n/a	n/a	n/a	n/a	n/a
233.017	6.317	CUE_PLAYBACK_BOTH_HANDS	M1	2	n/a	n/a	n/a
233.804	n/a	RESPONSE	M1	2	19	G4	press
233.816	n/a	RESPONSE	M1	2	07	G3	press
234.175	n/a	RESPONSE	M1	2	19	G4	release
234.286	n/a	RESPONSE	M1	2	04	E3	press
234.289	n/a	RESPONSE	M1	2	07	G3	release
234.33	n/a	RESPONSE	M1	2	16	E4	press
234.609	n/a	RESPONSE	M1	2	16	E4	release
234.612	n/a	RESPONSE	M1	2	04	E3	release
234.724	n/a	RESPONSE	M1	2	04	E3	press
234.764	n/a	RESPONSE	M1	2	16	E4	press
235.055	n/a	RESPONSE	M1	2	16	E4	release
235.082	n/a	RESPONSE	M1	2	04	E3	release
235.207	n/a	RESPONSE	M1	2	17	F4	press
235.21	n/a	RESPONSE	M1	2	05	F3	press
235.504	n/a	RESPONSE	M1	2	17	F4	release
235.56	n/a	RESPONSE	M1	2	05	F3	release
235.621	n/a	RESPONSE	M1	2	02	D3	press
235.659	n/a	RESPONSE	M1	2	14	D4	press
235.9	n/a	RESPONSE	M1	2	14	D4	release
235.916	n/a	RESPONSE	M1	2	02	D3	release
236.045	n/a	RESPONSE	M1	2	02	D3	press
236.049	n/a	RESPONSE	M1	2	14	D4	press
236.347	n/a	RESPONSE	M1	2	02	D3	release
236.35	n/a	RESPONSE	M1	2	14	D4	release
236.522	n/a	RESPONSE	M1	2	00	C3	press
236.547	n/a	RESPONSE	M1	2	12	C4	press
236.841	n/a	RESPONSE	M1	2	00	C3	release
236.879	n/a	RESPONSE	M1	2	12	C4	release
236.979	n/a	RESPONSE	M1	2	04	E3	press
237.016	n/a	RESPONSE	M1	2	16	E4	press
237.266	n/a	RESPONSE	M1	2	04	E3	release
237.284	n/a	RESPONSE	M1	2	16	E4	release
237.35	n/a	RESPONSE	M1	2	00	C3	press
237.374	n/a	RESPONSE	M1	2	12	C4	press
237.751	n/a	RESPONSE	M1	2	00	C3	release
237.812	n/a	RESPONSE	M1	2	12	C4	release
239.333	7.758	FIXCROSS	n/a	n/a	n/a	n/a	n/a
247.092	6.317	CUE_LISTEN	M1	1	n/a	n/a	n/a
253.408	7.758	FIXCROSS	n/a	n/a	n/a	n/a	n/a
261.167	6.325	CUE_PLAYBACK_RIGHT_HAND	M1	1	n/a	n/a	n/a
261.847	n/a	RESPONSE	M1	1	19	G4	press
262.277	n/a	RESPONSE	M1	1	19	G4	release
262.359	n/a	RESPONSE	M1	1	16	E4	press
262.662	n/a	RESPONSE	M1	1	16	E4	release
262.829	n/a	RESPONSE	M1	1	16	E4	press
263.16	n/a	RESPONSE	M1	1	16	E4	release
263.285	n/a	RESPONSE	M1	1	17	F4	press
263.672	n/a	RESPONSE	M1	1	17	F4	release
263.756	n/a	RESPONSE	M1	1	14	D4	press
264.019	n/a	RESPONSE	M1	1	14	D4	release
264.201	n/a	RESPONSE	M1	1	14	D4	press
264.586	n/a	RESPONSE	M1	1	14	D4	release
264.646	n/a	RESPONSE	M1	1	12	C4	press
264.906	n/a	RESPONSE	M1	1	16	E4	press
264.949	n/a	RESPONSE	M1	1	12	C4	release
265.142	n/a	RESPONSE	M1	1	16	E4	release
265.199	n/a	RESPONSE	M1	1	19	G4	press
265.724	n/a	RESPONSE	M1	1	19	G4	release
267.492	7.758	FIXCROSS	n/a	n/a	n/a	n/a	n/a
275.25	6.317	CUE_LISTEN	M1	2	n/a	n/a	n/a
281.567	7.758	FIXCROSS	n/a	n/a	n/a	n/a	n/a
289.325	6.317	CUE_PLAYBACK_RIGHT_HAND	M1	2	n/a	n/a	n/a
290.132	n/a	RESPONSE	M1	2	19	G4	press
290.534	n/a	RESPONSE	M1	2	19	G4	release
290.644	n/a	RESPONSE	M1	2	16	E4	press
290.934	n/a	RESPONSE	M1	2	16	E4	release
291.086	n/a	RESPONSE	M1	2	16	E4	press
291.434	n/a	RESPONSE	M1	2	16	E4	release
291.542	n/a	RESPONSE	M1	2	17	F4	press
291.944	n/a	RESPONSE	M1	2	17	F4	release
291.959	n/a	RESPONSE	M1	2	14	D4	press
292.207	n/a	RESPONSE	M1	2	14	D4	release
292.401	n/a	RESPONSE	M1	2	14	D4	press
292.732	n/a	RESPONSE	M1	2	14	D4	release
292.83	n/a	RESPONSE	M1	2	12	C4	press
293.081	n/a	RESPONSE	M1	2	12	C4	release
293.097	n/a	RESPONSE	M1	2	16	E4	press
293.357	n/a	RESPONSE	M1	2	16	E4	release
293.36	n/a	RESPONSE	M1	2	12	C4	press
293.925	n/a	RESPONSE	M1	2	12	C4	release
295.642	7.758	FIXCROSS	n/a	n/a	n/a	n/a	n/a
303.4	6.325	CUE_LISTEN	M1	1	n/a	n/a	n/a
309.725	7.758	FIXCROSS	n/a	n/a	n/a	n/a	n/a
317.484	6.317	CUE_PLAYBACK_BOTH_HANDS	M1	1	n/a	n/a	n/a
318.38	n/a	RESPONSE	M1	1	07	G3	press
318.382	n/a	RESPONSE	M1	1	19	G4	press
318.756	n/a	RESPONSE	M1	1	19	G4	release
318.846	n/a	RESPONSE	M1	1	07	G3	release
318.862	n/a	RESPONSE	M1	1	04	E3	press
318.889	n/a	RESPONSE	M1	1	16	E4	press
319.234	n/a	RESPONSE	M1	1	16	E4	release
319.345	n/a	RESPONSE	M1	1	16	E4	press
319.67	n/a	RESPONSE	M1	1	16	E4	release
319.711	n/a	RESPONSE	M1	1	04	E3	release
319.795	n/a	RESPONSE	M1	1	05	F3	press
319.798	n/a	RESPONSE	M1	1	17	F4	press
320.128	n/a	RESPONSE	M1	1	17	F4	release
320.184	n/a	RESPONSE	M1	1	05	F3	release
320.24	n/a	RESPONSE	M1	1	02	D3	press
320.255	n/a	RESPONSE	M1	1	14	D4	press
320.531	n/a	RESPONSE	M1	1	14	D4	release
320.56	n/a	RESPONSE	M1	1	02	D3	release
320.671	n/a	RESPONSE	M1	1	02	D3	press
320.686	n/a	RESPONSE	M1	1	14	D4	press
320.962	n/a	RESPONSE	M1	1	02	D3	release
321.032	n/a	RESPONSE	M1	1	14	D4	release
321.13	n/a	RESPONSE	M1	1	00	C3	press
321.145	n/a	RESPONSE	M1	1	12	C4	press
321.366	n/a	RESPONSE	M1	1	00	C3	release
321.422	n/a	RESPONSE	M1	1	12	C4	release
321.604	n/a	RESPONSE	M1	1	04	E3	press
321.632	n/a	RESPONSE	M1	1	16	E4	press
321.868	n/a	RESPONSE	M1	1	16	E4	release
321.896	n/a	RESPONSE	M1	1	04	E3	release
322.021	n/a	RESPONSE	M1	1	19	G4	press
322.05	n/a	RESPONSE	M1	1	05	F3	press
322.491	n/a	RESPONSE	M1	1	05	F3	release
322.52	n/a	RESPONSE	M1	1	19	G4	release
322.645	n/a	RESPONSE	M1	1	07	G3	press
322.66	n/a	RESPONSE	M1	1	19	G4	press
322.991	n/a	RESPONSE	M1	1	19	G4	release
323.16	n/a	RESPONSE	M1	1	07	G3	release
323.8	7.758	FIXCROSS	n/a	n/a	n/a	n/a	n/a
331.559	6.317	CUE_LISTEN	M1	2	n/a	n/a	n/a
337.875	7.758	FIXCROSS	n/a	n/a	n/a	n/a	n/a
345.634	6.325	CUE_PLAYBACK_BOTH_HANDS	M1	2	n/a	n/a	n/a
346.38	n/a	RESPONSE	M1	2	07	G3	press
346.382	n/a	RESPONSE	M1	2	19	G4	press
346.786	n/a	RESPONSE	M1	2	19	G4	release
346.862	n/a	RESPONSE	M1	2	04	E3	press
346.871	n/a	RESPONSE	M1	2	07	G3	release
346.888	n/a	RESPONSE	M1	2	16	E4	press
347.219	n/a	RESPONSE	M1	2	16	E4	release
347.221	n/a	RESPONSE	M1	2	04	E3	release
347.314	n/a	RESPONSE	M1	2	04	E3	press
347.342	n/a	RESPONSE	M1	2	16	E4	press
347.66	n/a	RESPONSE	M1	2	16	E4	release
347.729	n/a	RESPONSE	M1	2	04	E3	release
347.768	n/a	RESPONSE	M1	2	05	F3	press
347.779	n/a	RESPONSE	M1	2	17	F4	press
348.138	n/a	RESPONSE	M1	2	17	F4	release
348.154	n/a	RESPONSE	M1	2	05	F3	release
348.238	n/a	RESPONSE	M1	2	02	D3	press
348.249	n/a	RESPONSE	M1	2	14	D4	press
348.518	n/a	RESPONSE	M1	2	14	D4	release
348.541	n/a	RESPONSE	M1	2	02	D3	release
348.662	n/a	RESPONSE	M1	2	02	D3	press
348.672	n/a	RESPONSE	M1	2	14	D4	press
348.994	n/a	RESPONSE	M1	2	02	D3	release
349.009	n/a	RESPONSE	M1	2	14	D4	release
349.161	n/a	RESPONSE	M1	2	00	C3	press
349.19	n/a	RESPONSE	M1	2	12	C4	press
349.496	n/a	RESPONSE	M1	2	12	C4	release
349.596	n/a	RESPONSE	M1	2	04	E3	press
349.614	n/a	RESPONSE	M1	2	16	E4	press
349.628	n/a	RESPONSE	M1	2	00	C3	release
349.835	n/a	RESPONSE	M1	2	16	E4	release
349.905	n/a	RESPONSE	M1	2	04	E3	release
349.975	n/a	RESPONSE	M1	2	00	C3	press
350.004	n/a	RESPONSE	M1	2	12	C4	press
350.459	n/a	RESPONSE	M1	2	00	C3	release
350.488	n/a	RESPONSE	M1	2	12	C4	release
351.959	7.759	FIXCROSS	n/a	n/a	n/a	n/a	n/a
359.717	6.325	CUE_LISTEN	M1	1	n/a	n/a	n/a
366.042	7.759	FIXCROSS	n/a	n/a	n/a	n/a	n/a
373.8	6.308	CUE_PLAYBACK_RIGHT_HAND	M1	1	n/a	n/a	n/a
374.579	n/a	RESPONSE	M1	1	12	C4	press
375.036	n/a	RESPONSE	M1	1	12	C4	release
375.338	n/a	RESPONSE	M1	1	19	G4	press
375.685	n/a	RESPONSE	M1	1	19	G4	release
375.844	n/a	RESPONSE	M1	1	16	E4	press
376.108	n/a	RESPONSE	M1	1	16	E4	release
376.281	n/a	RESPONSE	M1	1	16	E4	press
376.538	n/a	RESPONSE	M1	1	16	E4	release
376.704	n/a	RESPONSE	M1	1	17	F4	press
377.005	n/a	RESPONSE	M1	1	17	F4	release
377.104	n/a	RESPONSE	M1	1	14	D4	press
377.325	n/a	RESPONSE	M1	1	14	D4	release
377.489	n/a	RESPONSE	M1	1	14	D4	press
377.806	n/a	RESPONSE	M1	1	14	D4	release
377.92	n/a	RESPONSE	M1	1	12	C4	press
378.199	n/a	RESPONSE	M1	1	12	C4	release
378.208	n/a	RESPONSE	M1	1	16	E4	press
378.434	n/a	RESPONSE	M1	1	16	E4	release
378.465	n/a	RESPONSE	M1	1	19	G4	press
378.881	n/a	RESPONSE	M1	1	19	G4	release
380.109	7.758	FIXCROSS	n/a	n/a	n/a	n/a	n/a
387.867	6.325	CUE_LISTEN	M1	2	n/a	n/a	n/a
394.192	7.759	FIXCROSS	n/a	n/a	n/a	n/a	n/a
401.951	6.317	CUE_PLAYBACK_RIGHT_HAND	M1	2	n/a	n/a	n/a
402.606	n/a	RESPONSE	M1	2	19	G4	press
402.94	n/a	RESPONSE	M1	2	19	G4	release
403.076	n/a	RESPONSE	M1	2	16	E4	press
403.353	n/a	RESPONSE	M1	2	16	E4	release
403.52	n/a	RESPONSE	M1	2	16	E4	press
403.796	n/a	RESPONSE	M1	2	16	E4	release
403.949	n/a	RESPONSE	M1	2	17	F4	press
404.378	n/a	RESPONSE	M1	2	17	F4	release
404.419	n/a	RESPONSE	M1	2	14	D4	press
404.643	n/a	RESPONSE	M1	2	14	D4	release
404.836	n/a	RESPONSE	M1	2	14	D4	press
405.115	n/a	RESPONSE	M1	2	14	D4	release
405.234	n/a	RESPONSE	M1	2	12	C4	press
405.47	n/a	RESPONSE	M1	2	12	C4	release
405.509	n/a	RESPONSE	M1	2	16	E4	press
405.839	n/a	RESPONSE	M1	2	16	E4	release
405.841	n/a	RESPONSE	M1	2	12	C4	press
406.294	n/a	RESPONSE	M1	2	12	C4	release
408.267	7.758	FIXCROSS	n/a	n/a	n/a	n/a	n/a
416.026	6.325	CUE_LISTEN	M1	1	n/a	n/a	n/a
422.351	7.758	FIXCROSS	n/a	n/a	n/a	n/a	n/a
430.109	6.317	CUE_PLAYBACK_BOTH_HANDS	M1	1	n/a	n/a	n/a
430.721	n/a	RESPONSE	M1	1	19	G4	press
430.736	n/a	RESPONSE	M1	1	07	G3	press
431.191	n/a	RESPONSE	M1	1	19	G4	release
431.261	n/a	RESPONSE	M1	1	07	G3	release
431.264	n/a	RESPONSE	M1	1	05	F3	press
431.278	n/a	RESPONSE	M1	1	14	D4	press
431.61	n/a	RESPONSE	M1	1	14	D4	release
431.639	n/a	RESPONSE	M1	1	05	F3	release
431.984	n/a	RESPONSE	M1	1	19	G4	press
431.986	n/a	RESPONSE	M1	1	07	G3	press
432.388	n/a	RESPONSE	M1	1	19	G4	release
432.416	n/a	RESPONSE	M1	1	07	G3	release
432.47	n/a	RESPONSE	M1	1	04	E3	press
432.485	n/a	RESPONSE	M1	1	16	E4	press
432.763	n/a	RESPONSE	M1	1	16	E4	release
432.776	n/a	RESPONSE	M1	1	04	E3	release
432.901	n/a	RESPONSE	M1	1	04	E3	press
432.916	n/a	RESPONSE	M1	1	16	E4	press
433.206	n/a	RESPONSE	M1	1	16	E4	release
433.263	n/a	RESPONSE	M1	1	04	E3	release
433.346	n/a	RESPONSE	M1	1	05	F3	press
433.35	n/a	RESPONSE	M1	1	17	F4	press
433.666	n/a	RESPONSE	M1	1	17	F4	release
433.695	n/a	RESPONSE	M1	1	05	F3	release
433.793	n/a	RESPONSE	M1	1	02	D3	press
433.808	n/a	RESPONSE	M1	1	14	D4	press
434.07	n/a	RESPONSE	M1	1	14	D4	release
434.114	n/a	RESPONSE	M1	1	02	D3	release
434.21	n/a	RESPONSE	M1	1	02	D3	press
434.225	n/a	RESPONSE	M1	1	14	D4	press
434.488	n/a	RESPONSE	M1	1	02	D3	release
434.544	n/a	RESPONSE	M1	1	14	D4	release
434.671	n/a	RESPONSE	M1	1	12	C4	press
434.674	n/a	RESPONSE	M1	1	00	C3	press
434.95	n/a	RESPONSE	M1	1	12	C4	release
435.019	n/a	RESPONSE	M1	1	00	C3	release
435.061	n/a	RESPONSE	M1	1	04	E3	press
435.064	n/a	RESPONSE	M1	1	16	E4	press
435.091	n/a	RESPONSE	M1	1	05	F3	press
435.203	n/a	RESPONSE	M1	1	05	F3	release
435.284	n/a	RESPONSE	M1	1	16	E4	release
435.383	n/a	RESPONSE	M1	1	04	E3	release
435.489	n/a	RESPONSE	M1	1	19	G4	press
435.52	n/a	RESPONSE	M1	1	05	F3	press
435.81	n/a	RESPONSE	M1	1	05	F3	release
435.936	n/a	RESPONSE	M1	1	07	G3	press
436.155	n/a	RESPONSE	M1	1	19	G4	release
436.299	n/a	RESPONSE	M1	1	07	G3	release
436.426	7.759	FIXCROSS	n/a	n/a	n/a	n/a	n/a
444.184	6.317	CUE_LISTEN	M1	2	n/a	n/a	n/a
450.501	7.758	FIXCROSS	n/a	n/a	n/a	n/a	n/a
458.259	6.325	CUE_PLAYBACK_BOTH_HANDS	M1	2	n/a	n/a	n/a
458.864	n/a	RESPONSE	M1	2	19	G4	press
458.879	n/a	RESPONSE	M1	2	07	G3	press
459.224	n/a	RESPONSE	M1	2	19	G4	release
459.338	n/a	RESPONSE	M1	2	07	G3	release
459.378	n/a	RESPONSE	M1	2	04	E3	press
459.393	n/a	RESPONSE	M1	2	16	E4	press
459.675	n/a	RESPONSE	M1	2	16	E4	release
459.83	n/a	RESPONSE	M1	2	16	E4	press
460.076	n/a	RESPONSE	M1	2	16	E4	release
460.094	n/a	RESPONSE	M1	2	04	E3	release
460.272	n/a	RESPONSE	M1	2	05	F3	press
460.286	n/a	RESPONSE	M1	2	17	F4	press
460.576	n/a	RESPONSE	M1	2	17	F4	release
460.674	n/a	RESPONSE	M1	2	05	F3	release
460.73	n/a	RESPONSE	M1	2	02	D3	press
460.748	n/a	RESPONSE	M1	2	14	D4	press
460.994	n/a	RESPONSE	M1	2	14	D4	release
461.023	n/a	RESPONSE	M1	2	02	D3	release
461.163	n/a	RESPONSE	M1	2	02	D3	press
461.176	n/a	RESPONSE	M1	2	14	D4	press
461.425	n/a	RESPONSE	M1	2	02	D3	release
461.454	n/a	RESPONSE	M1	2	14	D4	release
461.608	n/a	RESPONSE	M1	2	00	C3	press
461.61	n/a	RESPONSE	M1	2	12	C4	press
461.845	n/a	RESPONSE	M1	2	12	C4	release
461.928	n/a	RESPONSE	M1	2	00	C3	release
461.97	n/a	RESPONSE	M1	2	04	E3	press
462.013	n/a	RESPONSE	M1	2	16	E4	press
462.22	n/a	RESPONSE	M1	2	16	E4	release
462.223	n/a	RESPONSE	M1	2	04	E3	release
462.319	n/a	RESPONSE	M1	2	00	C3	press
462.334	n/a	RESPONSE	M1	2	12	C4	press
462.748	n/a	RESPONSE	M1	2	12	C4	release
462.763	n/a	RESPONSE	M1	2	00	C3	release
464.584	7.758	FIXCROSS	n/a	n/a	n/a	n/a	n/a
472.342	6.317	CUE_LISTEN	M1	1	n/a	n/a	n/a
478.659	7.758	FIXCROSS	n/a	n/a	n/a	n/a	n/a
486.418	6.317	CUE_PLAYBACK_RIGHT_HAND	M1	1	n/a	n/a	n/a
487.18	n/a	RESPONSE	M1	1	19	G4	press
487.563	n/a	RESPONSE	M1	1	19	G4	release
487.656	n/a	RESPONSE	M1	1	16	E4	press
487.957	n/a	RESPONSE	M1	1	16	E4	release
488.13	n/a	RESPONSE	M1	1	16	E4	press
488.446	n/a	RESPONSE	M1	1	16	E4	release
488.569	n/a	RESPONSE	M1	1	17	F4	press
488.899	n/a	RESPONSE	M1	1	17	F4	release
489.01	n/a	RESPONSE	M1	1	14	D4	press
489.273	n/a	RESPONSE	M1	1	14	D4	release
489.469	n/a	RESPONSE	M1	1	14	D4	press
489.765	n/a	RESPONSE	M1	1	14	D4	release
489.888	n/a	RESPONSE	M1	1	12	C4	press
490.15	n/a	RESPONSE	M1	1	12	C4	release
490.182	n/a	RESPONSE	M1	1	16	E4	press
490.386	n/a	RESPONSE	M1	1	16	E4	release
490.47	n/a	RESPONSE	M1	1	19	G4	press
490.856	n/a	RESPONSE	M1	1	19	G4	release
492.734	7.758	FIXCROSS	n/a	n/a	n/a	n/a	n/a
500.493	6.325	CUE_LISTEN	M1	2	n/a	n/a	n/a
506.818	7.758	FIXCROSS	n/a	n/a	n/a	n/a	n/a
514.576	6.317	CUE_PLAYBACK_RIGHT_HAND	M1	2	n/a	n/a	n/a
515.3	n/a	RESPONSE	M1	2	19	G4	press
515.64	n/a	RESPONSE	M1	2	19	G4	release
515.799	n/a	RESPONSE	M1	2	16	E4	press
516.095	n/a	RESPONSE	M1	2	16	E4	release
516.267	n/a	RESPONSE	M1	2	16	E4	press
516.575	n/a	RESPONSE	M1	2	16	E4	release
516.712	n/a	RESPONSE	M1	2	17	F4	press
517.013	n/a	RESPONSE	M1	2	17	F4	release
517.172	n/a	RESPONSE	M1	2	14	D4	press
517.435	n/a	RESPONSE	M1	2	14	D4	release
517.588	n/a	RESPONSE	M1	2	14	D4	press
517.904	n/a	RESPONSE	M1	2	14	D4	release
518.018	n/a	RESPONSE	M1	2	12	C4	press
518.274	n/a	RESPONSE	M1	2	16	E4	press
518.277	n/a	RESPONSE	M1	2	12	C4	release
518.554	n/a	RESPONSE	M1	2	12	C4	press
518.565	n/a	RESPONSE	M1	2	16	E4	release
519.053	n/a	RESPONSE	M1	2	12	C4	release
520.893	7.758	FIXCROSS	n/a	n/a	n/a	n/a	n/a
528.651	6.325	CUE_LISTEN	M1	1	n/a	n/a	n/a
534.976	7.758	FIXCROSS	n/a	n/a	n/a	n/a	n/a
542.734	6.317	CUE_PLAYBACK_BOTH_HANDS	M1	1	n/a	n/a	n/a
543.294	n/a	RESPONSE	M1	1	19	G4	press
543.297	n/a	RESPONSE	M1	1	07	G3	press
543.655	n/a	RESPONSE	M1	1	19	G4	release
543.74	n/a	RESPONSE	M1	1	07	G3	release
543.768	n/a	RESPONSE	M1	1	04	E3	press
543.783	n/a	RESPONSE	M1	1	16	E4	press
544.085	n/a	RESPONSE	M1	1	04	E3	release
544.102	n/a	RESPONSE	M1	1	16	E4	release
544.212	n/a	RESPONSE	M1	1	04	E3	press
544.24	n/a	RESPONSE	M1	1	16	E4	press
544.558	n/a	RESPONSE	M1	1	16	E4	release
544.617	n/a	RESPONSE	M1	1	04	E3	release
544.659	n/a	RESPONSE	M1	1	05	F3	press
544.674	n/a	RESPONSE	M1	1	17	F4	press
544.978	n/a	RESPONSE	M1	1	17	F4	release
545.048	n/a	RESPONSE	M1	1	05	F3	release
545.09	n/a	RESPONSE	M1	1	02	D3	press
545.12	n/a	RESPONSE	M1	1	14	D4	press
545.377	n/a	RESPONSE	M1	1	14	D4	release
545.4	n/a	RESPONSE	M1	1	02	D3	release
545.524	n/a	RESPONSE	M1	1	02	D3	press
545.53	n/a	RESPONSE	M1	1	14	D4	press
545.825	n/a	RESPONSE	M1	1	02	D3	release
545.857	n/a	RESPONSE	M1	1	14	D4	release
545.94	n/a	RESPONSE	M1	1	00	C3	press
545.957	n/a	RESPONSE	M1	1	12	C4	press
546.199	n/a	RESPONSE	M1	1	00	C3	release
546.267	n/a	RESPONSE	M1	1	12	C4	release
546.32	n/a	RESPONSE	M1	1	04	E3	press
546.344	n/a	RESPONSE	M1	1	16	E4	press
546.533	n/a	RESPONSE	M1	1	16	E4	release
546.579	n/a	RESPONSE	M1	1	04	E3	release
546.657	n/a	RESPONSE	M1	1	19	G4	press
546.672	n/a	RESPONSE	M1	1	05	F3	press
547.07	n/a	RESPONSE	M1	1	05	F3	release
547.134	n/a	RESPONSE	M1	1	19	G4	release
549.051	7.758	FIXCROSS	n/a	n/a	n/a	n/a	n/a
556.81	6.317	CUE_LISTEN	M1	2	n/a	n/a	n/a
563.126	7.758	FIXCROSS	n/a	n/a	n/a	n/a	n/a
570.884	6.317	CUE_PLAYBACK_BOTH_HANDS	M1	2	n/a	n/a	n/a
571.688	n/a	RESPONSE	M1	2	19	G4	press
571.69	n/a	RESPONSE	M1	2	07	G3	press
572.089	n/a	RESPONSE	M1	2	19	G4	release
572.214	n/a	RESPONSE	M1	2	04	E3	press
572.217	n/a	RESPONSE	M1	2	07	G3	release
572.244	n/a	RESPONSE	M1	2	16	E4	press
572.534	n/a	RESPONSE	M1	2	16	E4	release
572.537	n/a	RESPONSE	M1	2	04	E3	release
572.66	n/a	RESPONSE	M1	2	04	E3	press
572.692	n/a	RESPONSE	M1	2	16	E4	press
572.994	n/a	RESPONSE	M1	2	16	E4	release
573.049	n/a	RESPONSE	M1	2	04	E3	release
573.105	n/a	RESPONSE	M1	2	05	F3	press
573.134	n/a	RESPONSE	M1	2	17	F4	press
573.453	n/a	RESPONSE	M1	2	17	F4	release
573.535	n/a	RESPONSE	M1	2	05	F3	release
573.607	n/a	RESPONSE	M1	2	02	D3	press
573.622	n/a	RESPONSE	M1	2	14	D4	press
573.884	n/a	RESPONSE	M1	2	14	D4	release
573.899	n/a	RESPONSE	M1	2	02	D3	release
574.04	n/a	RESPONSE	M1	2	02	D3	press
574.053	n/a	RESPONSE	M1	2	14	D4	press
574.343	n/a	RESPONSE	M1	2	02	D3	release
574.385	n/a	RESPONSE	M1	2	14	D4	release
574.51	n/a	RESPONSE	M1	2	00	C3	press
574.525	n/a	RESPONSE	M1	2	12	C4	press
574.833	n/a	RESPONSE	M1	2	12	C4	release
574.847	n/a	RESPONSE	M1	2	00	C3	release
575.04	n/a	RESPONSE	M1	2	04	E3	press
575.083	n/a	RESPONSE	M1	2	16	E4	press
575.344	n/a	RESPONSE	M1	2	16	E4	release
575.398	n/a	RESPONSE	M1	2	04	E3	release
575.415	n/a	RESPONSE	M1	2	00	C3	press
575.438	n/a	RESPONSE	M1	2	12	C4	press
575.845	n/a	RESPONSE	M1	2	00	C3	release
575.892	n/a	RESPONSE	M1	2	12	C4	release
577.201	7.758	FIXCROSS	n/a	n/a	n/a	n/a	n/a
584.96	6.325	CUE_LISTEN	M1	1	n/a	n/a	n/a
591.285	7.758	FIXCROSS	n/a	n/a	n/a	n/a	n/a
599.043	6.317	CUE_PLAYBACK_RIGHT_HAND	M1	1	n/a	n/a	n/a
599.656	n/a	RESPONSE	M1	1	19	G4	press
600.055	n/a	RESPONSE	M1	1	19	G4	release
600.238	n/a	RESPONSE	M1	1	16	E4	press
600.498	n/a	RESPONSE	M1	1	16	E4	release
600.719	n/a	RESPONSE	M1	1	16	E4	press
601.009	n/a	RESPONSE	M1	1	16	E4	release
601.148	n/a	RESPONSE	M1	1	17	F4	press
601.494	n/a	RESPONSE	M1	1	17	F4	release
601.634	n/a	RESPONSE	M1	1	14	D4	press
601.937	n/a	RESPONSE	M1	1	14	D4	release
602.103	n/a	RESPONSE	M1	1	14	D4	press
602.475	n/a	RESPONSE	M1	1	14	D4	release
602.545	n/a	RESPONSE	M1	1	12	C4	press
602.824	n/a	RESPONSE	M1	1	12	C4	release
602.837	n/a	RESPONSE	M1	1	16	E4	press
603.044	n/a	RESPONSE	M1	1	16	E4	release
603.128	n/a	RESPONSE	M1	1	19	G4	press
603.555	n/a	RESPONSE	M1	1	19	G4	release
605.36	7.758	FIXCROSS	n/a	n/a	n/a	n/a	n/a
613.118	6.317	CUE_LISTEN	M1	2	n/a	n/a	n/a
619.435	7.758	FIXCROSS	n/a	n/a	n/a	n/a	n/a
627.193	6.325	CUE_PLAYBACK_RIGHT_HAND	M1	2	n/a	n/a	n/a
627.879	n/a	RESPONSE	M1	2	19	G4	press
628.293	n/a	RESPONSE	M1	2	19	G4	release
628.362	n/a	RESPONSE	M1	2	16	E4	press
628.67	n/a	RESPONSE	M1	2	16	E4	release
628.856	n/a	RESPONSE	M1	2	16	E4	press
629.159	n/a	RESPONSE	M1	2	16	E4	release
629.27	n/a	RESPONSE	M1	2	17	F4	press
629.592	n/a	RESPONSE	M1	2	17	F4	release
629.719	n/a	RESPONSE	M1	2	14	D4	press
629.968	n/a	RESPONSE	M1	2	14	D4	release
630.162	n/a	RESPONSE	M1	2	14	D4	press
630.493	n/a	RESPONSE	M1	2	14	D4	release
630.579	n/a	RESPONSE	M1	2	12	C4	press
630.854	n/a	RESPONSE	M1	2	16	E4	press
630.868	n/a	RESPONSE	M1	2	12	C4	release
631.144	n/a	RESPONSE	M1	2	12	C4	press
631.283	n/a	RESPONSE	M1	2	16	E4	release
631.659	n/a	RESPONSE	M1	2	12	C4	release
633.518	7.758	FIXCROSS	n/a	n/a	n/a	n/a	n/a
641.276	6.317	CUE_LISTEN	M1	1	n/a	n/a	n/a
647.593	7.758	FIXCROSS	n/a	n/a	n/a	n/a	n/a
655.352	6.325	CUE_PLAYBACK_BOTH_HANDS	M1	1	n/a	n/a	n/a
656.469	n/a	RESPONSE	M1	1	19	G4	press
656.477	n/a	RESPONSE	M1	1	07	G3	press
656.883	n/a	RESPONSE	M1	1	19	G4	release
656.962	n/a	RESPONSE	M1	1	04	E3	press
656.976	n/a	RESPONSE	M1	1	16	E4	press
656.999	n/a	RESPONSE	M1	1	07	G3	release
657.302	n/a	RESPONSE	M1	1	04	E3	release
657.317	n/a	RESPONSE	M1	1	16	E4	release
657.403	n/a	RESPONSE	M1	1	04	E3	press
657.44	n/a	RESPONSE	M1	1	16	E4	press
657.752	n/a	RESPONSE	M1	1	16	E4	release
657.833	n/a	RESPONSE	M1	1	04	E3	release
657.88	n/a	RESPONSE	M1	1	05	F3	press
657.888	n/a	RESPONSE	M1	1	17	F4	press
658.234	n/a	RESPONSE	M1	1	17	F4	release
658.289	n/a	RESPONSE	M1	1	05	F3	release
658.304	n/a	RESPONSE	M1	1	02	D3	press
658.328	n/a	RESPONSE	M1	1	14	D4	press
658.594	n/a	RESPONSE	M1	1	14	D4	release
658.639	n/a	RESPONSE	M1	1	02	D3	release
658.753	n/a	RESPONSE	M1	1	02	D3	press
658.768	n/a	RESPONSE	M1	1	14	D4	press
659.097	n/a	RESPONSE	M1	1	02	D3	release
659.126	n/a	RESPONSE	M1	1	14	D4	release
659.168	n/a	RESPONSE	M1	1	00	C3	press
659.197	n/a	RESPONSE	M1	1	12	C4	press
659.462	n/a	RESPONSE	M1	1	00	C3	release
659.504	n/a	RESPONSE	M1	1	12	C4	release
659.519	n/a	RESPONSE	M1	1	04	E3	press
659.548	n/a	RESPONSE	M1	1	16	E4	press
659.732	n/a	RESPONSE	M1	1	16	E4	release
659.747	n/a	RESPONSE	M1	1	04	E3	release
659.954	n/a	RESPONSE	M1	1	19	G4	press
659.957	n/a	RESPONSE	M1	1	07	G3	press
660.424	n/a	RESPONSE	M1	1	19	G4	release
660.619	n/a	RESPONSE	M1	1	07	G3	release
661.676	7.758	FIXCROSS	n/a	n/a	n/a	n/a	n/a
669.435	6.317	CUE_LISTEN	M1	2	n/a	n/a	n/a
675.752	7.758	FIXCROSS	n/a	n/a	n/a	n/a	n/a
683.51	6.317	CUE_PLAYBACK_BOTH_HANDS	M1	2	n/a	n/a	n/a
684.198	n/a	RESPONSE	M1	2	19	G4	press
684.201	n/a	RESPONSE	M1	2	07	G3	press
684.587	n/a	RESPONSE	M1	2	19	G4	release
684.658	n/a	RESPONSE	M1	2	04	E3	press
684.687	n/a	RESPONSE	M1	2	16	E4	press
684.716	n/a	RESPONSE	M1	2	07	G3	release
684.964	n/a	RESPONSE	M1	2	16	E4	release
684.979	n/a	RESPONSE	M1	2	04	E3	release
685.118	n/a	RESPONSE	M1	2	04	E3	press
685.133	n/a	RESPONSE	M1	2	16	E4	press
685.437	n/a	RESPONSE	M1	2	16	E4	release
685.491	n/a	RESPONSE	M1	2	04	E3	release
685.558	n/a	RESPONSE	M1	2	05	F3	press
685.576	n/a	RESPONSE	M1	2	17	F4	press
685.884	n/a	RESPONSE	M1	2	17	F4	release
685.931	n/a	RESPONSE	M1	2	05	F3	release
686.007	n/a	RESPONSE	M1	2	02	D3	press
686.031	n/a	RESPONSE	M1	2	14	D4	press
686.274	n/a	RESPONSE	M1	2	14	D4	release
686.303	n/a	RESPONSE	M1	2	02	D3	release
686.433	n/a	RESPONSE	M1	2	02	D3	press
686.448	n/a	RESPONSE	M1	2	14	D4	press
686.757	n/a	RESPONSE	M1	2	02	D3	release
686.791	n/a	RESPONSE	M1	2	14	D4	release
686.834	n/a	RESPONSE	M1	2	00	C3	press
686.873	n/a	RESPONSE	M1	2	12	C4	press
687.159	n/a	RESPONSE	M1	2	00	C3	release
687.176	n/a	RESPONSE	M1	2	12	C4	release
687.214	n/a	RESPONSE	M1	2	04	E3	press
687.253	n/a	RESPONSE	M1	2	16	E4	press
687.473	n/a	RESPONSE	M1	2	16	E4	release
687.476	n/a	RESPONSE	M1	2	04	E3	release
687.528	n/a	RESPONSE	M1	2	12	C4	press
687.546	n/a	RESPONSE	M1	2	00	C3	press
687.951	n/a	RESPONSE	M1	2	12	C4	release
688.019	n/a	RESPONSE	M1	2	00	C3	release
689.827	7.758	FIXCROSS	n/a	n/a	n/a	n/a	n/a
697.585	6.325	CUE_LISTEN	M1	1	n/a	n/a	n/a
703.91	7.758	FIXCROSS	n/a	n/a	n/a	n/a	n/a
711.668	6.317	CUE_PLAYBACK_RIGHT_HAND	M1	1	n/a	n/a	n/a
712.539	n/a	RESPONSE	M1	1	19	G4	press
712.884	n/a	RESPONSE	M1	1	19	G4	release
712.998	n/a	RESPONSE	M1	1	16	E4	press
713.273	n/a	RESPONSE	M1	1	16	E4	release
713.439	n/a	RESPONSE	M1	1	16	E4	press
713.717	n/a	RESPONSE	M1	1	16	E4	release
713.886	n/a	RESPONSE	M1	1	17	F4	press
714.203	n/a	RESPONSE	M1	1	17	F4	release
714.314	n/a	RESPONSE	M1	1	14	D4	press
714.547	n/a	RESPONSE	M1	1	14	D4	release
714.702	n/a	RESPONSE	M1	1	14	D4	press
714.978	n/a	RESPONSE	M1	1	14	D4	release
715.117	n/a	RESPONSE	M1	1	12	C4	press
715.337	n/a	RESPONSE	M1	1	12	C4	release
715.404	n/a	RESPONSE	M1	1	16	E4	press
715.617	n/a	RESPONSE	M1	1	16	E4	release
715.701	n/a	RESPONSE	M1	1	19	G4	press
716.147	n/a	RESPONSE	M1	1	19	G4	release
717.985	7.758	FIXCROSS	n/a	n/a	n/a	n/a	n/a
725.744	6.317	CUE_LISTEN	M1	2	n/a	n/a	n/a
732.06	7.758	FIXCROSS	n/a	n/a	n/a	n/a	n/a
739.818	6.325	CUE_PLAYBACK_RIGHT_HAND	M1	2	n/a	n/a	n/a
740.344	n/a	RESPONSE	M1	2	19	G4	press
740.701	n/a	RESPONSE	M1	2	19	G4	release
740.812	n/a	RESPONSE	M1	2	16	E4	press
741.088	n/a	RESPONSE	M1	2	16	E4	release
741.254	n/a	RESPONSE	M1	2	16	E4	press
741.544	n/a	RESPONSE	M1	2	16	E4	release
741.671	n/a	RESPONSE	M1	2	17	F4	press
741.976	n/a	RESPONSE	M1	2	17	F4	release
742.099	n/a	RESPONSE	M1	2	14	D4	press
742.362	n/a	RESPONSE	M1	2	14	D4	release
742.501	n/a	RESPONSE	M1	2	14	D4	press
742.791	n/a	RESPONSE	M1	2	14	D4	release
742.929	n/a	RESPONSE	M1	2	12	C4	press
743.167	n/a	RESPONSE	M1	2	12	C4	release
743.248	n/a	RESPONSE	M1	2	16	E4	press
743.483	n/a	RESPONSE	M1	2	16	E4	release
743.539	n/a	RESPONSE	M1	2	12	C4	press
743.941	n/a	RESPONSE	M1	2	12	C4	release
746.144	7.758	FIXCROSS	n/a	n/a	n/a	n/a	n/a
753.902	6.317	CUE_LISTEN	M1	1	n/a	n/a	n/a
760.219	7.758	FIXCROSS	n/a	n/a	n/a	n/a	n/a
767.977	6.317	CUE_PLAYBACK_BOTH_HANDS	M1	1	n/a	n/a	n/a
768.541	n/a	RESPONSE	M1	1	07	G3	press
768.543	n/a	RESPONSE	M1	1	19	G4	press
768.931	n/a	RESPONSE	M1	1	19	G4	release
769.001	n/a	RESPONSE	M1	1	07	G3	release
769.003	n/a	RESPONSE	M1	1	04	E3	press
769.006	n/a	RESPONSE	M1	1	16	E4	press
769.307	n/a	RESPONSE	M1	1	16	E4	release
769.338	n/a	RESPONSE	M1	1	04	E3	release
769.451	n/a	RESPONSE	M1	1	04	E3	press
769.466	n/a	RESPONSE	M1	1	16	E4	press
769.789	n/a	RESPONSE	M1	1	16	E4	release
769.844	n/a	RESPONSE	M1	1	04	E3	release
769.886	n/a	RESPONSE	M1	1	05	F3	press
769.901	n/a	RESPONSE	M1	1	17	F4	press
770.248	n/a	RESPONSE	M1	1	17	F4	release
770.288	n/a	RESPONSE	M1	1	05	F3	release
770.317	n/a	RESPONSE	M1	1	02	D3	press
770.332	n/a	RESPONSE	M1	1	14	D4	press
770.594	n/a	RESPONSE	M1	1	14	D4	release
770.609	n/a	RESPONSE	M1	1	02	D3	release
770.751	n/a	RESPONSE	M1	1	02	D3	press
770.763	n/a	RESPONSE	M1	1	14	D4	press
771.081	n/a	RESPONSE	M1	1	02	D3	release
771.083	n/a	RESPONSE	M1	1	14	D4	release
771.196	n/a	RESPONSE	M1	1	00	C3	press
771.222	n/a	RESPONSE	M1	1	12	C4	press
771.526	n/a	RESPONSE	M1	1	12	C4	release
771.541	n/a	RESPONSE	M1	1	04	E3	press
771.543	n/a	RESPONSE	M1	1	00	C3	release
771.557	n/a	RESPONSE	M1	1	16	E4	press
771.766	n/a	RESPONSE	M1	1	16	E4	release
771.797	n/a	RESPONSE	M1	1	04	E3	release
771.919	n/a	RESPONSE	M1	1	07	G3	press
771.934	n/a	RESPONSE	M1	1	19	G4	press
772.392	n/a	RESPONSE	M1	1	19	G4	release
772.707	n/a	RESPONSE	M1	1	07	G3	release
774.294	7.758	FIXCROSS	n/a	n/a	n/a	n/a	n/a
782.052	6.325	CUE_LISTEN	M1	2	n/a	n/a	n/a
788.377	7.758	FIXCROSS	n/a	n/a	n/a	n/a	n/a
796.135	6.317	CUE_PLAYBACK_BOTH_HANDS	M1	2	n/a	n/a	n/a
797.057	n/a	RESPONSE	M1	2	07	G3	press
797.071	n/a	RESPONSE	M1	2	19	G4	press
797.454	n/a	RESPONSE	M1	2	19	G4	release
797.531	n/a	RESPONSE	M1	2	07	G3	release
797.54	n/a	RESPONSE	M1	2	04	E3	press
797.563	n/a	RESPONSE	M1	2	16	E4	press
797.844	n/a	RESPONSE	M1	2	16	E4	release
797.867	n/a	RESPONSE	M1	2	04	E3	release
797.973	n/a	RESPONSE	M1	2	04	E3	press
797.982	n/a	RESPONSE	M1	2	16	E4	press
798.298	n/a	RESPONSE	M1	2	16	E4	release
798.344	n/a	RESPONSE	M1	2	04	E3	release
798.413	n/a	RESPONSE	M1	2	05	F3	press
798.424	n/a	RESPONSE	M1	2	17	F4	press
798.768	n/a	RESPONSE	M1	2	17	F4	release
798.81	n/a	RESPONSE	M1	2	05	F3	release
798.851	n/a	RESPONSE	M1	2	02	D3	press
798.88	n/a	RESPONSE	M1	2	14	D4	press
799.128	n/a	RESPONSE	M1	2	14	D4	release
799.16	n/a	RESPONSE	M1	2	02	D3	release
799.282	n/a	RESPONSE	M1	2	02	D3	press
799.284	n/a	RESPONSE	M1	2	14	D4	press
799.576	n/a	RESPONSE	M1	2	02	D3	release
799.578	n/a	RESPONSE	M1	2	14	D4	release
799.733	n/a	RESPONSE	M1	2	00	C3	press
799.748	n/a	RESPONSE	M1	2	12	C4	press
799.983	n/a	RESPONSE	M1	2	12	C4	release
800.0	n/a	RESPONSE	M1	2	00	C3	release
800.082	n/a	RESPONSE	M1	2	04	E3	press
800.097	n/a	RESPONSE	M1	2	16	E4	press
800.277	n/a	RESPONSE	M1	2	16	E4	release
800.292	n/a	RESPONSE	M1	2	04	E3	release
800.39	n/a	RESPONSE	M1	2	00	C3	press
800.392	n/a	RESPONSE	M1	2	12	C4	press
800.778	n/a	RESPONSE	M1	2	12	C4	release
800.874	n/a	RESPONSE	M1	2	00	C3	release
802.452	7.758	FIXCROSS	n/a	n/a	n/a	n/a	n/a
810.21	6.317	CUE_LISTEN	M1	1	n/a	n/a	n/a
816.527	7.758	FIXCROSS	n/a	n/a	n/a	n/a	n/a
824.286	6.325	CUE_PLAYBACK_RIGHT_HAND	M1	1	n/a	n/a	n/a
824.872	n/a	RESPONSE	M1	1	19	G4	press
825.286	n/a	RESPONSE	M1	1	19	G4	release
825.324	n/a	RESPONSE	M1	1	16	E4	press
825.642	n/a	RESPONSE	M1	1	16	E4	release
825.808	n/a	RESPONSE	M1	1	16	E4	press
826.103	n/a	RESPONSE	M1	1	16	E4	release
826.24	n/a	RESPONSE	M1	1	17	F4	press
826.578	n/a	RESPONSE	M1	1	17	F4	release
826.61	n/a	RESPONSE	M1	1	14	D4	press
826.882	n/a	RESPONSE	M1	1	14	D4	release
827.091	n/a	RESPONSE	M1	1	14	D4	press
827.445	n/a	RESPONSE	M1	1	14	D4	release
827.491	n/a	RESPONSE	M1	1	12	C4	press
827.758	n/a	RESPONSE	M1	1	16	E4	press
827.803	n/a	RESPONSE	M1	1	12	C4	release
827.983	n/a	RESPONSE	M1	1	16	E4	release
828.031	n/a	RESPONSE	M1	1	19	G4	press
828.556	n/a	RESPONSE	M1	1	19	G4	release
830.61	7.759	FIXCROSS	n/a	n/a	n/a	n/a	n/a
838.369	6.317	CUE_LISTEN	M1	2	n/a	n/a	n/a
844.686	7.758	FIXCROSS	n/a	n/a	n/a	n/a	n/a
852.444	6.325	CUE_PLAYBACK_RIGHT_HAND	M1	2	n/a	n/a	n/a
853.01	n/a	RESPONSE	M1	2	19	G4	press
853.437	n/a	RESPONSE	M1	2	19	G4	release
853.452	n/a	RESPONSE	M1	2	16	E4	press
853.732	n/a	RESPONSE	M1	2	16	E4	release
853.925	n/a	RESPONSE	M1	2	16	E4	press
854.215	n/a	RESPONSE	M1	2	16	E4	release
854.381	n/a	RESPONSE	M1	2	17	F4	press
854.756	n/a	RESPONSE	M1	2	17	F4	release
854.77	n/a	RESPONSE	M1	2	14	D4	press
855.032	n/a	RESPONSE	M1	2	14	D4	release
855.243	n/a	RESPONSE	M1	2	14	D4	press
855.552	n/a	RESPONSE	M1	2	14	D4	release
855.675	n/a	RESPONSE	M1	2	12	C4	press
855.887	n/a	RESPONSE	M1	2	16	E4	press
855.894	n/a	RESPONSE	M1	2	12	C4	release
856.196	n/a	RESPONSE	M1	2	12	C4	press
856.22	n/a	RESPONSE	M1	2	16	E4	release
856.783	n/a	RESPONSE	M1	2	12	C4	release
858.769	7.758	FIXCROSS	n/a	n/a	n/a	n/a	n/a
866.527	6.317	CUE_LISTEN	M1	1	n/a	n/a	n/a
872.844	7.758	FIXCROSS	n/a	n/a	n/a	n/a	n/a
880.602	6.317	CUE_PLAYBACK_BOTH_HANDS	M1	1	n/a	n/a	n/a
881.28	n/a	RESPONSE	M1	1	19	G4	press
881.296	n/a	RESPONSE	M1	1	07	G3	press
881.71	n/a	RESPONSE	M1	1	19	G4	release
881.766	n/a	RESPONSE	M1	1	07	G3	release
881.795	n/a	RESPONSE	M1	1	04	E3	press
881.81	n/a	RESPONSE	M1	1	16	E4	press
882.155	n/a	RESPONSE	M1	1	16	E4	release
882.157	n/a	RESPONSE	M1	1	04	E3	release
882.255	n/a	RESPONSE	M1	1	04	E3	press
882.282	n/a	RESPONSE	M1	1	16	E4	press
882.6	n/a	RESPONSE	M1	1	16	E4	release
882.642	n/a	RESPONSE	M1	1	04	E3	release
882.726	n/a	RESPONSE	M1	1	05	F3	press
882.741	n/a	RESPONSE	M1	1	17	F4	press
883.127	n/a	RESPONSE	M1	1	17	F4	release
883.142	n/a	RESPONSE	M1	1	05	F3	release
883.185	n/a	RESPONSE	M1	1	02	D3	press
883.2	n/a	RESPONSE	M1	1	14	D4	press
883.49	n/a	RESPONSE	M1	1	14	D4	release
883.518	n/a	RESPONSE	M1	1	02	D3	release
883.617	n/a	RESPONSE	M1	1	02	D3	press
883.632	n/a	RESPONSE	M1	1	14	D4	press
883.95	n/a	RESPONSE	M1	1	02	D3	release
883.978	n/a	RESPONSE	M1	1	14	D4	release
884.103	n/a	RESPONSE	M1	1	00	C3	press
884.118	n/a	RESPONSE	M1	1	12	C4	press
884.367	n/a	RESPONSE	M1	1	12	C4	release
884.425	n/a	RESPONSE	M1	1	04	E3	press
884.427	n/a	RESPONSE	M1	1	16	E4	press
884.44	n/a	RESPONSE	M1	1	00	C3	release
884.636	n/a	RESPONSE	M1	1	16	E4	release
884.651	n/a	RESPONSE	M1	1	04	E3	release
884.735	n/a	RESPONSE	M1	1	07	G3	press
884.737	n/a	RESPONSE	M1	1	19	G4	press
885.205	n/a	RESPONSE	M1	1	19	G4	release
885.316	n/a	RESPONSE	M1	1	07	G3	release
886.919	7.759	FIXCROSS	n/a	n/a	n/a	n/a	n/a
894.678	6.325	CUE_LISTEN	M1	2	n/a	n/a	n/a
901.002	7.758	FIXCROSS	n/a	n/a	n/a	n/a	n/a
908.761	85.244	CUE_PLAYBACK_BOTH_HANDS	M1	2	n/a	n/a	n/a
909.643	n/a	RESPONSE	M1	2	07	G3	press
909.646	n/a	RESPONSE	M1	2	19	G4	press
910.045	n/a	RESPONSE	M1	2	19	G4	release
910.128	n/a	RESPONSE	M1	2	04	E3	press
910.157	n/a	RESPONSE	M1	2	07	G3	release
910.16	n/a	RESPONSE	M1	2	16	E4	press
910.462	n/a	RESPONSE	M1	2	04	E3	release
910.465	n/a	RESPONSE	M1	2	16	E4	release
910.588	n/a	RESPONSE	M1	2	04	E3	press
910.617	n/a	RESPONSE	M1	2	16	E4	press
910.962	n/a	RESPONSE	M1	2	16	E4	release
911.005	n/a	RESPONSE	M1	2	04	E3	release
911.088	n/a	RESPONSE	M1	2	17	F4	press
911.091	n/a	RESPONSE	M1	2	05	F3	press
911.517	n/a	RESPONSE	M1	2	17	F4	release
911.52	n/a	RESPONSE	M1	2	05	F3	release
911.547	n/a	RESPONSE	M1	2	02	D3	press
911.55	n/a	RESPONSE	M1	2	14	D4	press
911.826	n/a	RESPONSE	M1	2	14	D4	release
911.855	n/a	RESPONSE	M1	2	02	D3	release
911.98	n/a	RESPONSE	M1	2	14	D4	press
911.982	n/a	RESPONSE	M1	2	02	D3	press
912.312	n/a	RESPONSE	M1	2	02	D3	release
912.356	n/a	RESPONSE	M1	2	14	D4	release
912.466	n/a	RESPONSE	M1	2	00	C3	press
912.468	n/a	RESPONSE	M1	2	12	C4	press
912.73	n/a	RESPONSE	M1	2	12	C4	release
912.772	n/a	RESPONSE	M1	2	04	E3	press
912.775	n/a	RESPONSE	M1	2	00	C3	release
912.788	n/a	RESPONSE	M1	2	16	E4	press
912.982	n/a	RESPONSE	M1	2	16	E4	release
912.985	n/a	RESPONSE	M1	2	04	E3	release
913.056	n/a	RESPONSE	M1	2	12	C4	press
913.082	n/a	RESPONSE	M1	2	00	C3	press
913.257	n/a	FIXCROSS	n/a	n/a	n/a	n/a	n/a
913.537	n/a	RESPONSE	M1	2	00	C3	release
913.54	n/a	RESPONSE	M1	2	12	C4	release
