onset	duration	trial_type	trial_number	stroop_condition	stim_text(PL)	stim_text(eng)	stim_color(PL)	stim_color(eng)	response_type	response_color
0.0	n/a	RESPONSE	n/a	n/a	n/a	n/a	n/a	n/a	n/a	n/a
0.06	1.0334	ITI	n/a	n/a	n/a	n/a	n/a	n/a	n/a	n/a
1.0934	0.5167	FIXCROSS	n/a	n/a	n/a	n/a	n/a	n/a	n/a	n/a
1.6101	1.3167	T_INK	1	Incongruent	żółty	yellow	zielony	green	hit	n/a
2.8953	n/a	RESPONSE	n/a	n/a	n/a	n/a	n/a	n/a	n/a	green
2.9267	0.5167	FEEDBACK	n/a	n/a	n/a	n/a	n/a	n/a	n/a	n/a
3.4434	1.0167	ITI	n/a	n/a	n/a	n/a	n/a	n/a	n/a	n/a
4.4601	0.5167	FIXCROSS	n/a	n/a	n/a	n/a	n/a	n/a	n/a	n/a
4.9768	0.9167	T_INK	2	Neutral	xxxxxxx	xxxxxxx	niebieski	blue	hit	n/a
5.8705	n/a	RESPONSE	n/a	n/a	n/a	n/a	n/a	n/a	n/a	blue
5.8934	0.5167	FEEDBACK	n/a	n/a	n/a	n/a	n/a	n/a	n/a	n/a
6.4101	1.0167	ITI	n/a	n/a	n/a	n/a	n/a	n/a	n/a	n/a
7.4268	0.5167	FIXCROSS	n/a	n/a	n/a	n/a	n/a	n/a	n/a	n/a
7.9435	0.9833	T_INK	3	Neutral	xxxxxxxxx	xxxxxxxxx	zielony	green	hit	n/a
8.8937	n/a	RESPONSE	n/a	n/a	n/a	n/a	n/a	n/a	n/a	green
8.9268	0.5167	FEEDBACK	n/a	n/a	n/a	n/a	n/a	n/a	n/a	n/a
9.4435	1.0167	ITI	n/a	n/a	n/a	n/a	n/a	n/a	n/a	n/a
10.4601	0.5167	FIXCROSS	n/a	n/a	n/a	n/a	n/a	n/a	n/a	n/a
10.9768	0.7667	T_INK	4	Incongruent	żółty	yellow	czerwony	red	hit	n/a
11.7089	n/a	RESPONSE	n/a	n/a	n/a	n/a	n/a	n/a	n/a	red
11.7435	0.5167	FEEDBACK	n/a	n/a	n/a	n/a	n/a	n/a	n/a	n/a
12.2602	1.0167	ITI	n/a	n/a	n/a	n/a	n/a	n/a	n/a	n/a
13.2768	0.5167	FIXCROSS	n/a	n/a	n/a	n/a	n/a	n/a	n/a	n/a
13.7935	0.8667	T_INK	5	Incongruent	czerwony	red	niebieski	blue	hit	n/a
14.6362	n/a	RESPONSE	n/a	n/a	n/a	n/a	n/a	n/a	n/a	blue
14.6602	0.5167	FEEDBACK	n/a	n/a	n/a	n/a	n/a	n/a	n/a	n/a
15.1768	1.0167	ITI	n/a	n/a	n/a	n/a	n/a	n/a	n/a	n/a
16.1935	0.5167	FIXCROSS	n/a	n/a	n/a	n/a	n/a	n/a	n/a	n/a
16.7102	0.55	T_INK	6	Neutral	xxxxxxx	xxxxxxx	czerwony	red	hit	n/a
17.2275	n/a	RESPONSE	n/a	n/a	n/a	n/a	n/a	n/a	n/a	red
17.2602	0.5167	FEEDBACK	n/a	n/a	n/a	n/a	n/a	n/a	n/a	n/a
17.7769	1.0167	ITI	n/a	n/a	n/a	n/a	n/a	n/a	n/a	n/a
18.7935	0.5167	FIXCROSS	n/a	n/a	n/a	n/a	n/a	n/a	n/a	n/a
19.3102	0.6667	T_INK	7	Neutral	xxxxxxxxx	xxxxxxxxx	czerwony	red	hit	n/a
19.9468	n/a	RESPONSE	n/a	n/a	n/a	n/a	n/a	n/a	n/a	red
19.9769	0.5167	FEEDBACK	n/a	n/a	n/a	n/a	n/a	n/a	n/a	n/a
20.4935	1.0167	ITI	n/a	n/a	n/a	n/a	n/a	n/a	n/a	n/a
21.5102	0.5167	FIXCROSS	n/a	n/a	n/a	n/a	n/a	n/a	n/a	n/a
22.0269	0.8167	T_INK	8	Neutral	xxxxxxxxx	xxxxxxxxx	żółty	yellow	hit	n/a
22.81	n/a	RESPONSE	n/a	n/a	n/a	n/a	n/a	n/a	n/a	yellow
22.8436	0.5167	FEEDBACK	n/a	n/a	n/a	n/a	n/a	n/a	n/a	n/a
23.3602	1.0167	ITI	n/a	n/a	n/a	n/a	n/a	n/a	n/a	n/a
24.3769	0.5167	FIXCROSS	n/a	n/a	n/a	n/a	n/a	n/a	n/a	n/a
24.8936	0.6167	T_INK	9	Incongruent	czerwony	red	zielony	green	hit	n/a
25.4813	n/a	RESPONSE	n/a	n/a	n/a	n/a	n/a	n/a	n/a	green
25.5102	0.5167	FEEDBACK	n/a	n/a	n/a	n/a	n/a	n/a	n/a	n/a
26.0269	1.0167	ITI	n/a	n/a	n/a	n/a	n/a	n/a	n/a	n/a
27.0436	0.5167	FIXCROSS	n/a	n/a	n/a	n/a	n/a	n/a	n/a	n/a
27.5603	0.6	T_INK	10	Neutral	xxxxxxxx	xxxxxxxx	żółty	yellow	hit	n/a
28.1366	n/a	RESPONSE	n/a	n/a	n/a	n/a	n/a	n/a	n/a	yellow
28.1603	0.5167	FEEDBACK	n/a	n/a	n/a	n/a	n/a	n/a	n/a	n/a
28.6769	1.0167	ITI	n/a	n/a	n/a	n/a	n/a	n/a	n/a	n/a
29.6936	0.5167	FIXCROSS	n/a	n/a	n/a	n/a	n/a	n/a	n/a	n/a
30.2103	0.4	T_INK	11	Incongruent	zielony	green	czerwony	red	hit	n/a
30.584	n/a	RESPONSE	n/a	n/a	n/a	n/a	n/a	n/a	n/a	red
30.6103	0.5167	FEEDBACK	n/a	n/a	n/a	n/a	n/a	n/a	n/a	n/a
31.1269	1.0167	ITI	n/a	n/a	n/a	n/a	n/a	n/a	n/a	n/a
32.1436	0.5167	FIXCROSS	n/a	n/a	n/a	n/a	n/a	n/a	n/a	n/a
32.6603	0.65	T_INK	12	Incongruent	niebieski	blue	czerwony	red	hit	n/a
33.2873	n/a	RESPONSE	n/a	n/a	n/a	n/a	n/a	n/a	n/a	red
33.3103	0.5167	FEEDBACK	n/a	n/a	n/a	n/a	n/a	n/a	n/a	n/a
33.827	1.0333	ITI	n/a	n/a	n/a	n/a	n/a	n/a	n/a	n/a
37.8782	n/a	RESPONSE	n/a	n/a	n/a	n/a	n/a	n/a	n/a	n/a
37.9437	1.0167	ITI	n/a	n/a	n/a	n/a	n/a	n/a	n/a	n/a
38.9603	0.5167	FIXCROSS	n/a	n/a	n/a	n/a	n/a	n/a	n/a	n/a
39.477	0.8167	INK	1	Neutral	xxxxxxxxx	xxxxxxxxx	żółty	yellow	hit	n/a
40.2617	n/a	RESPONSE	n/a	n/a	n/a	n/a	n/a	n/a	n/a	yellow
40.2937	1.0167	ITI	n/a	n/a	n/a	n/a	n/a	n/a	n/a	n/a
41.3104	0.5167	FIXCROSS	n/a	n/a	n/a	n/a	n/a	n/a	n/a	n/a
41.827	0.9167	INK	2	Incongruent	niebieski	blue	zielony	green	hit	n/a
42.725	n/a	RESPONSE	n/a	n/a	n/a	n/a	n/a	n/a	n/a	green
42.7437	1.0167	ITI	n/a	n/a	n/a	n/a	n/a	n/a	n/a	n/a
43.7604	0.5167	FIXCROSS	n/a	n/a	n/a	n/a	n/a	n/a	n/a	n/a
44.277	0.5	INK	3	Incongruent	zielony	green	niebieski	blue	hit	n/a
44.7565	n/a	RESPONSE	n/a	n/a	n/a	n/a	n/a	n/a	n/a	blue
44.777	1.0167	ITI	n/a	n/a	n/a	n/a	n/a	n/a	n/a	n/a
45.7937	0.5167	FIXCROSS	n/a	n/a	n/a	n/a	n/a	n/a	n/a	n/a
46.3104	0.6833	INK	4	Incongruent	zielony	green	niebieski	blue	hit	n/a
46.964	n/a	RESPONSE	n/a	n/a	n/a	n/a	n/a	n/a	n/a	blue
46.9937	1.0167	ITI	n/a	n/a	n/a	n/a	n/a	n/a	n/a	n/a
48.0104	0.5167	FIXCROSS	n/a	n/a	n/a	n/a	n/a	n/a	n/a	n/a
48.5271	0.6167	INK	5	Incongruent	żółty	yellow	zielony	green	hit	n/a
49.1234	n/a	RESPONSE	n/a	n/a	n/a	n/a	n/a	n/a	n/a	green
49.1437	1.0167	ITI	n/a	n/a	n/a	n/a	n/a	n/a	n/a	n/a
50.1604	0.5167	FIXCROSS	n/a	n/a	n/a	n/a	n/a	n/a	n/a	n/a
50.6771	0.6	INK	6	Neutral	xxxxxxxxx	xxxxxxxxx	zielony	green	hit	n/a
51.2509	n/a	RESPONSE	n/a	n/a	n/a	n/a	n/a	n/a	n/a	green
51.2771	1.0167	ITI	n/a	n/a	n/a	n/a	n/a	n/a	n/a	n/a
52.2938	0.5167	FIXCROSS	n/a	n/a	n/a	n/a	n/a	n/a	n/a	n/a
52.8104	0.75	INK	7	Neutral	xxxxx	xxxxx	niebieski	blue	hit	n/a
53.5383	n/a	RESPONSE	n/a	n/a	n/a	n/a	n/a	n/a	n/a	blue
53.5604	1.0167	ITI	n/a	n/a	n/a	n/a	n/a	n/a	n/a	n/a
54.5771	0.5167	FIXCROSS	n/a	n/a	n/a	n/a	n/a	n/a	n/a	n/a
55.0938	0.65	INK	8	Neutral	xxxxxxx	xxxxxxx	czerwony	red	hit	n/a
55.7137	n/a	RESPONSE	n/a	n/a	n/a	n/a	n/a	n/a	n/a	red
55.7438	1.0167	ITI	n/a	n/a	n/a	n/a	n/a	n/a	n/a	n/a
56.7605	0.5167	FIXCROSS	n/a	n/a	n/a	n/a	n/a	n/a	n/a	n/a
57.2771	0.65	INK	9	Incongruent	czerwony	red	niebieski	blue	hit	n/a
57.9053	n/a	RESPONSE	n/a	n/a	n/a	n/a	n/a	n/a	n/a	blue
57.9271	1.0167	ITI	n/a	n/a	n/a	n/a	n/a	n/a	n/a	n/a
58.9438	0.5167	FIXCROSS	n/a	n/a	n/a	n/a	n/a	n/a	n/a	n/a
59.4605	0.7	INK	10	Neutral	xxxxxxx	xxxxxxx	żółty	yellow	hit	n/a
60.1287	n/a	RESPONSE	n/a	n/a	n/a	n/a	n/a	n/a	n/a	yellow
60.1605	1.0167	ITI	n/a	n/a	n/a	n/a	n/a	n/a	n/a	n/a
61.1772	0.5167	FIXCROSS	n/a	n/a	n/a	n/a	n/a	n/a	n/a	n/a
61.6938	0.7667	INK	11	Incongruent	zielony	green	żółty	yellow	hit	n/a
62.4321	n/a	RESPONSE	n/a	n/a	n/a	n/a	n/a	n/a	n/a	yellow
62.4605	1.0167	ITI	n/a	n/a	n/a	n/a	n/a	n/a	n/a	n/a
63.4772	0.5167	FIXCROSS	n/a	n/a	n/a	n/a	n/a	n/a	n/a	n/a
63.9939	0.9167	INK	12	Neutral	xxxxxxxxx	xxxxxxxxx	zielony	green	hit	n/a
64.8795	n/a	RESPONSE	n/a	n/a	n/a	n/a	n/a	n/a	n/a	green
64.9105	1.0167	ITI	n/a	n/a	n/a	n/a	n/a	n/a	n/a	n/a
65.9272	0.5167	FIXCROSS	n/a	n/a	n/a	n/a	n/a	n/a	n/a	n/a
66.4439	0.65	INK	13	Neutral	xxxxxxxx	xxxxxxxx	żółty	yellow	hit	n/a
67.071	n/a	RESPONSE	n/a	n/a	n/a	n/a	n/a	n/a	n/a	yellow
67.0939	1.0167	ITI	n/a	n/a	n/a	n/a	n/a	n/a	n/a	n/a
68.1105	0.5167	FIXCROSS	n/a	n/a	n/a	n/a	n/a	n/a	n/a	n/a
68.6272	0.65	INK	14	Neutral	xxxxxxx	xxxxxxx	niebieski	blue	hit	n/a
69.2464	n/a	RESPONSE	n/a	n/a	n/a	n/a	n/a	n/a	n/a	blue
69.2772	1.0167	ITI	n/a	n/a	n/a	n/a	n/a	n/a	n/a	n/a
70.2939	0.5167	FIXCROSS	n/a	n/a	n/a	n/a	n/a	n/a	n/a	n/a
70.8106	0.75	INK	15	Neutral	xxxxxxx	xxxxxxx	żółty	yellow	hit	n/a
71.5339	n/a	RESPONSE	n/a	n/a	n/a	n/a	n/a	n/a	n/a	yellow
71.5606	1.0167	ITI	n/a	n/a	n/a	n/a	n/a	n/a	n/a	n/a
72.5772	0.5167	FIXCROSS	n/a	n/a	n/a	n/a	n/a	n/a	n/a	n/a
73.0939	0.9	INK	16	Neutral	xxxxxxxx	xxxxxxxx	zielony	green	hit	n/a
73.9652	n/a	RESPONSE	n/a	n/a	n/a	n/a	n/a	n/a	n/a	green
73.9939	1.0167	ITI	n/a	n/a	n/a	n/a	n/a	n/a	n/a	n/a
75.0106	0.5167	FIXCROSS	n/a	n/a	n/a	n/a	n/a	n/a	n/a	n/a
75.5273	0.8167	INK	17	Incongruent	czerwony	red	niebieski	blue	hit	n/a
76.3167	n/a	RESPONSE	n/a	n/a	n/a	n/a	n/a	n/a	n/a	blue
76.3439	1.0167	ITI	n/a	n/a	n/a	n/a	n/a	n/a	n/a	n/a
77.3606	0.5167	FIXCROSS	n/a	n/a	n/a	n/a	n/a	n/a	n/a	n/a
77.8773	0.6167	INK	18	Neutral	xxxxx	xxxxx	czerwony	red	hit	n/a
78.4762	n/a	RESPONSE	n/a	n/a	n/a	n/a	n/a	n/a	n/a	red
78.494	1.0167	ITI	n/a	n/a	n/a	n/a	n/a	n/a	n/a	n/a
79.5106	0.5167	FIXCROSS	n/a	n/a	n/a	n/a	n/a	n/a	n/a	n/a
80.0273	0.9167	INK	19	Incongruent	żółty	yellow	zielony	green	hit	n/a
80.9235	n/a	RESPONSE	n/a	n/a	n/a	n/a	n/a	n/a	n/a	green
80.944	1.0167	ITI	n/a	n/a	n/a	n/a	n/a	n/a	n/a	n/a
81.9606	0.5167	FIXCROSS	n/a	n/a	n/a	n/a	n/a	n/a	n/a	n/a
82.4773	0.6	INK	20	Neutral	xxxxxxx	xxxxxxx	niebieski	blue	hit	n/a
83.051	n/a	RESPONSE	n/a	n/a	n/a	n/a	n/a	n/a	n/a	blue
83.0773	1.0167	ITI	n/a	n/a	n/a	n/a	n/a	n/a	n/a	n/a
84.094	0.5167	FIXCROSS	n/a	n/a	n/a	n/a	n/a	n/a	n/a	n/a
84.6107	0.6	INK	21	Incongruent	zielony	green	niebieski	blue	hit	n/a
85.1785	n/a	RESPONSE	n/a	n/a	n/a	n/a	n/a	n/a	n/a	blue
85.2107	1.0167	ITI	n/a	n/a	n/a	n/a	n/a	n/a	n/a	n/a
86.2273	0.5167	FIXCROSS	n/a	n/a	n/a	n/a	n/a	n/a	n/a	n/a
86.744	0.65	INK	22	Neutral	xxxxxxxx	xxxxxxxx	żółty	yellow	hit	n/a
87.3699	n/a	RESPONSE	n/a	n/a	n/a	n/a	n/a	n/a	n/a	yellow
87.394	1.0167	ITI	n/a	n/a	n/a	n/a	n/a	n/a	n/a	n/a
88.4107	0.5167	FIXCROSS	n/a	n/a	n/a	n/a	n/a	n/a	n/a	n/a
88.9274	0.5667	INK	23	Neutral	xxxxx	xxxxx	czerwony	red	hit	n/a
89.4654	n/a	RESPONSE	n/a	n/a	n/a	n/a	n/a	n/a	n/a	red
89.494	1.0167	ITI	n/a	n/a	n/a	n/a	n/a	n/a	n/a	n/a
90.5107	0.5167	FIXCROSS	n/a	n/a	n/a	n/a	n/a	n/a	n/a	n/a
91.0274	0.55	INK	24	Neutral	xxxxxxxxx	xxxxxxxxx	czerwony	red	hit	n/a
91.5449	n/a	RESPONSE	n/a	n/a	n/a	n/a	n/a	n/a	n/a	red
91.5774	1.0167	ITI	n/a	n/a	n/a	n/a	n/a	n/a	n/a	n/a
92.594	0.5167	FIXCROSS	n/a	n/a	n/a	n/a	n/a	n/a	n/a	n/a
93.1107	0.8333	INK	25	Neutral	xxxxx	xxxxx	zielony	green	hit	n/a
93.9123	n/a	RESPONSE	n/a	n/a	n/a	n/a	n/a	n/a	n/a	green
93.9441	1.0167	ITI	n/a	n/a	n/a	n/a	n/a	n/a	n/a	n/a
94.9607	0.5167	FIXCROSS	n/a	n/a	n/a	n/a	n/a	n/a	n/a	n/a
95.4774	0.7	INK	26	Neutral	xxxxxxx	xxxxxxx	niebieski	blue	hit	n/a
96.1517	n/a	RESPONSE	n/a	n/a	n/a	n/a	n/a	n/a	n/a	blue
96.1774	1.0167	ITI	n/a	n/a	n/a	n/a	n/a	n/a	n/a	n/a
97.1941	0.5167	FIXCROSS	n/a	n/a	n/a	n/a	n/a	n/a	n/a	n/a
97.7108	1.4167	INK	27	Neutral	xxxxxxxx	xxxxxxxx	niebieski	blue	hit	n/a
99.095	n/a	RESPONSE	n/a	n/a	n/a	n/a	n/a	n/a	n/a	blue
99.1274	1.0167	ITI	n/a	n/a	n/a	n/a	n/a	n/a	n/a	n/a
100.1441	0.5167	FIXCROSS	n/a	n/a	n/a	n/a	n/a	n/a	n/a	n/a
100.6608	0.6	INK	28	Incongruent	niebieski	blue	żółty	yellow	hit	n/a
101.2385	n/a	RESPONSE	n/a	n/a	n/a	n/a	n/a	n/a	n/a	yellow
101.2608	1.0167	ITI	n/a	n/a	n/a	n/a	n/a	n/a	n/a	n/a
102.2774	0.5167	FIXCROSS	n/a	n/a	n/a	n/a	n/a	n/a	n/a	n/a
102.7941	0.5833	INK	29	Neutral	xxxxxxxxx	xxxxxxxxx	żółty	yellow	hit	n/a
103.35	n/a	RESPONSE	n/a	n/a	n/a	n/a	n/a	n/a	n/a	yellow
103.3775	1.0167	ITI	n/a	n/a	n/a	n/a	n/a	n/a	n/a	n/a
104.3941	0.5167	FIXCROSS	n/a	n/a	n/a	n/a	n/a	n/a	n/a	n/a
104.9108	0.55	INK	30	Neutral	xxxxxxxxx	xxxxxxxxx	czerwony	red	hit	n/a
105.4295	n/a	RESPONSE	n/a	n/a	n/a	n/a	n/a	n/a	n/a	red
105.4608	1.0167	ITI	n/a	n/a	n/a	n/a	n/a	n/a	n/a	n/a
106.4775	0.5167	FIXCROSS	n/a	n/a	n/a	n/a	n/a	n/a	n/a	n/a
106.9941	0.6167	INK	31	Incongruent	niebieski	blue	czerwony	red	hit	n/a
107.5889	n/a	RESPONSE	n/a	n/a	n/a	n/a	n/a	n/a	n/a	red
107.6108	1.0167	ITI	n/a	n/a	n/a	n/a	n/a	n/a	n/a	n/a
108.6275	0.5167	FIXCROSS	n/a	n/a	n/a	n/a	n/a	n/a	n/a	n/a
109.1442	0.6333	INK	32	Neutral	xxxxx	xxxxx	czerwony	red	hit	n/a
109.7484	n/a	RESPONSE	n/a	n/a	n/a	n/a	n/a	n/a	n/a	red
109.7775	1.0167	ITI	n/a	n/a	n/a	n/a	n/a	n/a	n/a	n/a
110.7942	0.5167	FIXCROSS	n/a	n/a	n/a	n/a	n/a	n/a	n/a	n/a
111.3108	0.85	INK	33	Incongruent	niebieski	blue	żółty	yellow	hit	n/a
112.1318	n/a	RESPONSE	n/a	n/a	n/a	n/a	n/a	n/a	n/a	yellow
112.1608	1.0167	ITI	n/a	n/a	n/a	n/a	n/a	n/a	n/a	n/a
113.1775	0.5167	FIXCROSS	n/a	n/a	n/a	n/a	n/a	n/a	n/a	n/a
113.6942	0.6	INK	34	Incongruent	zielony	green	żółty	yellow	hit	n/a
114.2753	n/a	RESPONSE	n/a	n/a	n/a	n/a	n/a	n/a	n/a	yellow
114.2942	1.0167	ITI	n/a	n/a	n/a	n/a	n/a	n/a	n/a	n/a
115.3109	0.5167	FIXCROSS	n/a	n/a	n/a	n/a	n/a	n/a	n/a	n/a
115.8275	0.8	INK	35	Incongruent	niebieski	blue	zielony	green	hit	n/a
116.5947	n/a	RESPONSE	n/a	n/a	n/a	n/a	n/a	n/a	n/a	green
116.6276	1.0167	ITI	n/a	n/a	n/a	n/a	n/a	n/a	n/a	n/a
117.6442	0.5167	FIXCROSS	n/a	n/a	n/a	n/a	n/a	n/a	n/a	n/a
118.1609	0.5333	INK	36	Incongruent	żółty	yellow	niebieski	blue	hit	n/a
118.6742	n/a	RESPONSE	n/a	n/a	n/a	n/a	n/a	n/a	n/a	blue
118.6942	1.0167	ITI	n/a	n/a	n/a	n/a	n/a	n/a	n/a	n/a
119.7109	0.5167	FIXCROSS	n/a	n/a	n/a	n/a	n/a	n/a	n/a	n/a
120.2276	0.6833	INK	37	Neutral	xxxxxxx	xxxxxxx	żółty	yellow	hit	n/a
120.8817	n/a	RESPONSE	n/a	n/a	n/a	n/a	n/a	n/a	n/a	yellow
120.9109	1.0167	ITI	n/a	n/a	n/a	n/a	n/a	n/a	n/a	n/a
121.9276	0.5167	FIXCROSS	n/a	n/a	n/a	n/a	n/a	n/a	n/a	n/a
122.4443	0.5833	INK	38	Incongruent	zielony	green	żółty	yellow	hit	n/a
123.0091	n/a	RESPONSE	n/a	n/a	n/a	n/a	n/a	n/a	n/a	yellow
123.0276	1.0167	ITI	n/a	n/a	n/a	n/a	n/a	n/a	n/a	n/a
124.0443	0.5167	FIXCROSS	n/a	n/a	n/a	n/a	n/a	n/a	n/a	n/a
124.5609	0.7167	INK	39	Neutral	xxxxxxxxx	xxxxxxxxx	zielony	green	incorrect	n/a
125.2486	n/a	RESPONSE	n/a	n/a	n/a	n/a	n/a	n/a	n/a	red
125.2776	1.0167	ITI	n/a	n/a	n/a	n/a	n/a	n/a	n/a	n/a
126.2943	0.5167	FIXCROSS	n/a	n/a	n/a	n/a	n/a	n/a	n/a	n/a
126.811	0.65	INK	40	Incongruent	żółty	yellow	czerwony	red	hit	n/a
127.44	n/a	RESPONSE	n/a	n/a	n/a	n/a	n/a	n/a	n/a	red
127.461	1.0167	ITI	n/a	n/a	n/a	n/a	n/a	n/a	n/a	n/a
128.4776	0.5167	FIXCROSS	n/a	n/a	n/a	n/a	n/a	n/a	n/a	n/a
128.9943	1.0	INK	41	Neutral	xxxxxxxx	xxxxxxxx	zielony	green	hit	n/a
129.9674	n/a	RESPONSE	n/a	n/a	n/a	n/a	n/a	n/a	n/a	green
129.9943	1.0167	ITI	n/a	n/a	n/a	n/a	n/a	n/a	n/a	n/a
131.011	0.5167	FIXCROSS	n/a	n/a	n/a	n/a	n/a	n/a	n/a	n/a
131.5276	0.5	INK	42	Incongruent	czerwony	red	zielony	green	hit	n/a
131.9989	n/a	RESPONSE	n/a	n/a	n/a	n/a	n/a	n/a	n/a	green
132.0277	1.0167	ITI	n/a	n/a	n/a	n/a	n/a	n/a	n/a	n/a
133.0443	0.5167	FIXCROSS	n/a	n/a	n/a	n/a	n/a	n/a	n/a	n/a
133.561	1.0167	INK	43	Neutral	xxxxxxx	xxxxxxx	czerwony	red	hit	n/a
134.5583	n/a	RESPONSE	n/a	n/a	n/a	n/a	n/a	n/a	n/a	red
134.5777	1.0167	ITI	n/a	n/a	n/a	n/a	n/a	n/a	n/a	n/a
135.5943	0.5167	FIXCROSS	n/a	n/a	n/a	n/a	n/a	n/a	n/a	n/a
136.111	0.8833	INK	44	Incongruent	żółty	yellow	czerwony	red	hit	n/a
136.9736	n/a	RESPONSE	n/a	n/a	n/a	n/a	n/a	n/a	n/a	red
136.9944	1.0167	ITI	n/a	n/a	n/a	n/a	n/a	n/a	n/a	n/a
138.011	0.5167	FIXCROSS	n/a	n/a	n/a	n/a	n/a	n/a	n/a	n/a
138.5277	0.5333	INK	45	Neutral	xxxxxxx	xxxxxxx	czerwony	red	hit	n/a
139.0371	n/a	RESPONSE	n/a	n/a	n/a	n/a	n/a	n/a	n/a	red
139.061	1.0167	ITI	n/a	n/a	n/a	n/a	n/a	n/a	n/a	n/a
140.0777	0.5167	FIXCROSS	n/a	n/a	n/a	n/a	n/a	n/a	n/a	n/a
140.5944	0.6833	INK	46	Neutral	xxxxxxxx	xxxxxxxx	zielony	green	hit	n/a
141.2446	n/a	RESPONSE	n/a	n/a	n/a	n/a	n/a	n/a	n/a	green
141.2777	1.0167	ITI	n/a	n/a	n/a	n/a	n/a	n/a	n/a	n/a
142.2944	0.5167	FIXCROSS	n/a	n/a	n/a	n/a	n/a	n/a	n/a	n/a
142.8111	1.1167	INK	47	Incongruent	żółty	yellow	niebieski	blue	hit	n/a
143.8999	n/a	RESPONSE	n/a	n/a	n/a	n/a	n/a	n/a	n/a	blue
143.9277	1.0167	ITI	n/a	n/a	n/a	n/a	n/a	n/a	n/a	n/a
144.9444	0.5167	FIXCROSS	n/a	n/a	n/a	n/a	n/a	n/a	n/a	n/a
145.4611	0.6167	INK	48	Incongruent	czerwony	red	żółty	yellow	hit	n/a
146.0594	n/a	RESPONSE	n/a	n/a	n/a	n/a	n/a	n/a	n/a	yellow
146.0778	1.0167	ITI	n/a	n/a	n/a	n/a	n/a	n/a	n/a	n/a
147.0944	0.5167	FIXCROSS	n/a	n/a	n/a	n/a	n/a	n/a	n/a	n/a
147.6111	0.7	INK	49	Neutral	xxxxx	xxxxx	niebieski	blue	hit	n/a
148.2828	n/a	RESPONSE	n/a	n/a	n/a	n/a	n/a	n/a	n/a	blue
148.3111	1.0167	ITI	n/a	n/a	n/a	n/a	n/a	n/a	n/a	n/a
149.3278	0.5167	FIXCROSS	n/a	n/a	n/a	n/a	n/a	n/a	n/a	n/a
149.8444	0.6667	INK	50	Neutral	xxxxxxxxx	xxxxxxxxx	żółty	yellow	hit	n/a
150.4903	n/a	RESPONSE	n/a	n/a	n/a	n/a	n/a	n/a	n/a	yellow
150.5111	1.0167	ITI	n/a	n/a	n/a	n/a	n/a	n/a	n/a	n/a
151.5278	0.5167	FIXCROSS	n/a	n/a	n/a	n/a	n/a	n/a	n/a	n/a
152.0445	0.6333	INK	51	Incongruent	zielony	green	czerwony	red	hit	n/a
152.6498	n/a	RESPONSE	n/a	n/a	n/a	n/a	n/a	n/a	n/a	red
152.6778	1.0167	ITI	n/a	n/a	n/a	n/a	n/a	n/a	n/a	n/a
153.6945	0.5167	FIXCROSS	n/a	n/a	n/a	n/a	n/a	n/a	n/a	n/a
154.2111	0.6	INK	52	Incongruent	żółty	yellow	czerwony	red	hit	n/a
154.7932	n/a	RESPONSE	n/a	n/a	n/a	n/a	n/a	n/a	n/a	red
154.8111	1.0167	ITI	n/a	n/a	n/a	n/a	n/a	n/a	n/a	n/a
155.8278	0.5167	FIXCROSS	n/a	n/a	n/a	n/a	n/a	n/a	n/a	n/a
156.3445	0.5667	INK	53	Neutral	xxxxx	xxxxx	niebieski	blue	hit	n/a
156.8887	n/a	RESPONSE	n/a	n/a	n/a	n/a	n/a	n/a	n/a	blue
156.9112	1.0167	ITI	n/a	n/a	n/a	n/a	n/a	n/a	n/a	n/a
157.9278	0.5167	FIXCROSS	n/a	n/a	n/a	n/a	n/a	n/a	n/a	n/a
158.4445	0.5833	INK	54	Neutral	xxxxx	xxxxx	zielony	green	hit	n/a
159.0002	n/a	RESPONSE	n/a	n/a	n/a	n/a	n/a	n/a	n/a	green
159.0278	1.0167	ITI	n/a	n/a	n/a	n/a	n/a	n/a	n/a	n/a
160.0445	0.5167	FIXCROSS	n/a	n/a	n/a	n/a	n/a	n/a	n/a	n/a
160.5612	0.65	INK	55	Incongruent	niebieski	blue	żółty	yellow	hit	n/a
161.1916	n/a	RESPONSE	n/a	n/a	n/a	n/a	n/a	n/a	n/a	yellow
161.2112	1.0167	ITI	n/a	n/a	n/a	n/a	n/a	n/a	n/a	n/a
162.2279	0.5167	FIXCROSS	n/a	n/a	n/a	n/a	n/a	n/a	n/a	n/a
162.7445	0.75	INK	56	Neutral	xxxxxxxxx	xxxxxxxxx	czerwony	red	hit	n/a
163.4631	n/a	RESPONSE	n/a	n/a	n/a	n/a	n/a	n/a	n/a	red
163.4945	1.0167	ITI	n/a	n/a	n/a	n/a	n/a	n/a	n/a	n/a
164.5112	0.5167	FIXCROSS	n/a	n/a	n/a	n/a	n/a	n/a	n/a	n/a
165.0279	0.6167	INK	57	Incongruent	zielony	green	czerwony	red	hit	n/a
165.6225	n/a	RESPONSE	n/a	n/a	n/a	n/a	n/a	n/a	n/a	red
165.6445	1.0167	ITI	n/a	n/a	n/a	n/a	n/a	n/a	n/a	n/a
166.6612	0.5167	FIXCROSS	n/a	n/a	n/a	n/a	n/a	n/a	n/a	n/a
167.1779	1.1333	INK	58	Incongruent	czerwony	red	zielony	green	hit	n/a
168.2779	n/a	RESPONSE	n/a	n/a	n/a	n/a	n/a	n/a	n/a	green
168.3112	1.0167	ITI	n/a	n/a	n/a	n/a	n/a	n/a	n/a	n/a
169.3279	0.5167	FIXCROSS	n/a	n/a	n/a	n/a	n/a	n/a	n/a	n/a
169.8446	0.4833	INK	59	Incongruent	żółty	yellow	niebieski	blue	hit	n/a
170.3094	n/a	RESPONSE	n/a	n/a	n/a	n/a	n/a	n/a	n/a	blue
170.3279	1.0167	ITI	n/a	n/a	n/a	n/a	n/a	n/a	n/a	n/a
171.3446	0.5166	FIXCROSS	n/a	n/a	n/a	n/a	n/a	n/a	n/a	n/a
171.8612	0.5167	INK	60	Neutral	xxxxxxxx	xxxxxxxx	niebieski	blue	hit	n/a
172.3569	n/a	RESPONSE	n/a	n/a	n/a	n/a	n/a	n/a	n/a	blue
172.3779	1.0167	ITI	n/a	n/a	n/a	n/a	n/a	n/a	n/a	n/a
173.3946	0.5167	FIXCROSS	n/a	n/a	n/a	n/a	n/a	n/a	n/a	n/a
173.9113	0.6333	INK	61	Incongruent	niebieski	blue	czerwony	red	hit	n/a
174.5163	n/a	RESPONSE	n/a	n/a	n/a	n/a	n/a	n/a	n/a	red
174.5446	1.0167	ITI	n/a	n/a	n/a	n/a	n/a	n/a	n/a	n/a
175.5613	0.5167	FIXCROSS	n/a	n/a	n/a	n/a	n/a	n/a	n/a	n/a
176.078	0.6667	INK	62	Incongruent	czerwony	red	niebieski	blue	hit	n/a
176.7238	n/a	RESPONSE	n/a	n/a	n/a	n/a	n/a	n/a	n/a	blue
176.7446	1.0167	ITI	n/a	n/a	n/a	n/a	n/a	n/a	n/a	n/a
177.7613	0.5167	FIXCROSS	n/a	n/a	n/a	n/a	n/a	n/a	n/a	n/a
178.278	0.55	INK	63	Neutral	xxxxxxxx	xxxxxxxx	niebieski	blue	hit	n/a
178.8033	n/a	RESPONSE	n/a	n/a	n/a	n/a	n/a	n/a	n/a	blue
178.828	1.0167	ITI	n/a	n/a	n/a	n/a	n/a	n/a	n/a	n/a
179.8447	0.5167	FIXCROSS	n/a	n/a	n/a	n/a	n/a	n/a	n/a	n/a
180.3613	0.8333	INK	64	Incongruent	czerwony	red	zielony	green	hit	n/a
181.1707	n/a	RESPONSE	n/a	n/a	n/a	n/a	n/a	n/a	n/a	green
181.1947	1.0167	ITI	n/a	n/a	n/a	n/a	n/a	n/a	n/a	n/a
182.2113	0.5167	FIXCROSS	n/a	n/a	n/a	n/a	n/a	n/a	n/a	n/a
182.728	0.65	INK	65	Incongruent	niebieski	blue	zielony	green	hit	n/a
183.3461	n/a	RESPONSE	n/a	n/a	n/a	n/a	n/a	n/a	n/a	green
183.378	1.0167	ITI	n/a	n/a	n/a	n/a	n/a	n/a	n/a	n/a
184.3947	0.5167	FIXCROSS	n/a	n/a	n/a	n/a	n/a	n/a	n/a	n/a
184.9113	0.7167	INK	66	Neutral	xxxxxxxx	xxxxxxxx	żółty	yellow	hit	n/a
185.6016	n/a	RESPONSE	n/a	n/a	n/a	n/a	n/a	n/a	n/a	yellow
185.628	1.0167	ITI	n/a	n/a	n/a	n/a	n/a	n/a	n/a	n/a
186.6447	0.5167	FIXCROSS	n/a	n/a	n/a	n/a	n/a	n/a	n/a	n/a
187.1614	0.6167	INK	67	Incongruent	niebieski	blue	czerwony	red	hit	n/a
187.7451	n/a	RESPONSE	n/a	n/a	n/a	n/a	n/a	n/a	n/a	red
187.778	1.0167	ITI	n/a	n/a	n/a	n/a	n/a	n/a	n/a	n/a
188.7947	0.5167	FIXCROSS	n/a	n/a	n/a	n/a	n/a	n/a	n/a	n/a
189.3114	0.8	INK	68	Incongruent	zielony	green	czerwony	red	hit	n/a
190.0805	n/a	RESPONSE	n/a	n/a	n/a	n/a	n/a	n/a	n/a	red
190.1114	1.0167	ITI	n/a	n/a	n/a	n/a	n/a	n/a	n/a	n/a
191.1281	0.5167	FIXCROSS	n/a	n/a	n/a	n/a	n/a	n/a	n/a	n/a
191.6447	0.6	INK	69	Incongruent	czerwony	red	żółty	yellow	incorrect	n/a
192.224	n/a	RESPONSE	n/a	n/a	n/a	n/a	n/a	n/a	n/a	green
192.2447	1.0167	ITI	n/a	n/a	n/a	n/a	n/a	n/a	n/a	n/a
193.2614	0.5167	FIXCROSS	n/a	n/a	n/a	n/a	n/a	n/a	n/a	n/a
193.7781	1.0167	INK	70	Incongruent	żółty	yellow	zielony	green	hit	n/a
194.7673	n/a	RESPONSE	n/a	n/a	n/a	n/a	n/a	n/a	n/a	green
194.7947	1.0167	ITI	n/a	n/a	n/a	n/a	n/a	n/a	n/a	n/a
195.8114	0.5167	FIXCROSS	n/a	n/a	n/a	n/a	n/a	n/a	n/a	n/a
196.3281	0.7333	INK	71	Neutral	xxxxx	xxxxx	zielony	green	hit	n/a
197.0388	n/a	RESPONSE	n/a	n/a	n/a	n/a	n/a	n/a	n/a	green
197.0614	1.0167	ITI	n/a	n/a	n/a	n/a	n/a	n/a	n/a	n/a
198.0781	0.5167	FIXCROSS	n/a	n/a	n/a	n/a	n/a	n/a	n/a	n/a
198.5948	0.6	INK	72	Incongruent	czerwony	red	żółty	yellow	hit	n/a
199.1662	n/a	RESPONSE	n/a	n/a	n/a	n/a	n/a	n/a	n/a	yellow
199.1948	1.0833	ITI	n/a	n/a	n/a	n/a	n/a	n/a	n/a	n/a
206.0285	n/a	RESPONSE	n/a	n/a	n/a	n/a	n/a	n/a	n/a	n/a
206.0948	1.0167	ITI	n/a	n/a	n/a	n/a	n/a	n/a	n/a	n/a
207.1115	0.5167	FIXCROSS	n/a	n/a	n/a	n/a	n/a	n/a	n/a	n/a
207.6282	0.9833	T_COLOR_NAME	1	Neutral	zielony	green	Neutral	Neutral	hit	n/a
208.5719	n/a	RESPONSE	n/a	n/a	n/a	n/a	n/a	n/a	n/a	green
208.6115	0.5167	FEEDBACK	n/a	n/a	n/a	n/a	n/a	n/a	n/a	n/a
209.1282	1.0167	ITI	n/a	n/a	n/a	n/a	n/a	n/a	n/a	n/a
210.1449	0.5167	FIXCROSS	n/a	n/a	n/a	n/a	n/a	n/a	n/a	n/a
210.6615	0.95	T_COLOR_NAME	2	Incongruent	czerwony	red	niebieski	blue	hit	n/a
211.5791	n/a	RESPONSE	n/a	n/a	n/a	n/a	n/a	n/a	n/a	red
211.6115	0.5167	FEEDBACK	n/a	n/a	n/a	n/a	n/a	n/a	n/a	n/a
212.1282	1.0167	ITI	n/a	n/a	n/a	n/a	n/a	n/a	n/a	n/a
213.1449	0.5167	FIXCROSS	n/a	n/a	n/a	n/a	n/a	n/a	n/a	n/a
213.6615	0.8667	T_COLOR_NAME	3	Neutral	zielony	green	Neutral	Neutral	hit	n/a
214.5064	n/a	RESPONSE	n/a	n/a	n/a	n/a	n/a	n/a	n/a	green
214.5282	0.5167	FEEDBACK	n/a	n/a	n/a	n/a	n/a	n/a	n/a	n/a
215.0449	1.0167	ITI	n/a	n/a	n/a	n/a	n/a	n/a	n/a	n/a
216.0616	0.5167	FIXCROSS	n/a	n/a	n/a	n/a	n/a	n/a	n/a	n/a
216.5782	0.8333	T_COLOR_NAME	4	Incongruent	żółty	yellow	zielony	green	hit	n/a
217.3857	n/a	RESPONSE	n/a	n/a	n/a	n/a	n/a	n/a	n/a	yellow
217.4116	0.5167	FEEDBACK	n/a	n/a	n/a	n/a	n/a	n/a	n/a	n/a
217.9282	1.0167	ITI	n/a	n/a	n/a	n/a	n/a	n/a	n/a	n/a
218.9449	0.5167	FIXCROSS	n/a	n/a	n/a	n/a	n/a	n/a	n/a	n/a
219.4616	0.85	T_COLOR_NAME	5	Incongruent	niebieski	blue	czerwony	red	hit	n/a
220.281	n/a	RESPONSE	n/a	n/a	n/a	n/a	n/a	n/a	n/a	blue
220.3116	0.5167	FEEDBACK	n/a	n/a	n/a	n/a	n/a	n/a	n/a	n/a
220.8283	1.0167	ITI	n/a	n/a	n/a	n/a	n/a	n/a	n/a	n/a
221.8449	0.5167	FIXCROSS	n/a	n/a	n/a	n/a	n/a	n/a	n/a	n/a
222.3616	0.7667	T_COLOR_NAME	6	Incongruent	żółty	yellow	czerwony	red	hit	n/a
223.0963	n/a	RESPONSE	n/a	n/a	n/a	n/a	n/a	n/a	n/a	yellow
223.1283	0.5167	FEEDBACK	n/a	n/a	n/a	n/a	n/a	n/a	n/a	n/a
223.6449	1.0167	ITI	n/a	n/a	n/a	n/a	n/a	n/a	n/a	n/a
224.6616	0.5167	FIXCROSS	n/a	n/a	n/a	n/a	n/a	n/a	n/a	n/a
225.1783	0.6667	T_COLOR_NAME	7	Neutral	niebieski	blue	Neutral	Neutral	hit	n/a
225.8156	n/a	RESPONSE	n/a	n/a	n/a	n/a	n/a	n/a	n/a	blue
225.845	0.5167	FEEDBACK	n/a	n/a	n/a	n/a	n/a	n/a	n/a	n/a
226.3616	1.0167	ITI	n/a	n/a	n/a	n/a	n/a	n/a	n/a	n/a
227.3783	0.5167	FIXCROSS	n/a	n/a	n/a	n/a	n/a	n/a	n/a	n/a
227.895	0.75	T_COLOR_NAME	8	Neutral	niebieski	blue	Neutral	Neutral	hit	n/a
228.6149	n/a	RESPONSE	n/a	n/a	n/a	n/a	n/a	n/a	n/a	blue
228.645	0.5167	FEEDBACK	n/a	n/a	n/a	n/a	n/a	n/a	n/a	n/a
229.1616	1.0167	ITI	n/a	n/a	n/a	n/a	n/a	n/a	n/a	n/a
230.1783	0.5167	FIXCROSS	n/a	n/a	n/a	n/a	n/a	n/a	n/a	n/a
230.695	0.7667	T_COLOR_NAME	9	Incongruent	czerwony	red	zielony	green	hit	n/a
231.4302	n/a	RESPONSE	n/a	n/a	n/a	n/a	n/a	n/a	n/a	red
231.4617	0.5167	FEEDBACK	n/a	n/a	n/a	n/a	n/a	n/a	n/a	n/a
231.9783	1.0167	ITI	n/a	n/a	n/a	n/a	n/a	n/a	n/a	n/a
232.995	0.5167	FIXCROSS	n/a	n/a	n/a	n/a	n/a	n/a	n/a	n/a
233.5117	0.6667	T_COLOR_NAME	10	Neutral	czerwony	red	Neutral	Neutral	hit	n/a
234.1496	n/a	RESPONSE	n/a	n/a	n/a	n/a	n/a	n/a	n/a	red
234.1783	0.5167	FEEDBACK	n/a	n/a	n/a	n/a	n/a	n/a	n/a	n/a
234.695	1.0167	ITI	n/a	n/a	n/a	n/a	n/a	n/a	n/a	n/a
235.7117	0.5167	FIXCROSS	n/a	n/a	n/a	n/a	n/a	n/a	n/a	n/a
236.2284	0.9667	T_COLOR_NAME	11	Incongruent	zielony	green	czerwony	red	hit	n/a
237.1728	n/a	RESPONSE	n/a	n/a	n/a	n/a	n/a	n/a	n/a	green
237.195	0.5167	FEEDBACK	n/a	n/a	n/a	n/a	n/a	n/a	n/a	n/a
237.7117	1.0167	ITI	n/a	n/a	n/a	n/a	n/a	n/a	n/a	n/a
238.7284	0.5167	FIXCROSS	n/a	n/a	n/a	n/a	n/a	n/a	n/a	n/a
239.2451	0.55	T_COLOR_NAME	12	Neutral	niebieski	blue	Neutral	Neutral	hit	n/a
239.7642	n/a	RESPONSE	n/a	n/a	n/a	n/a	n/a	n/a	n/a	blue
239.7951	0.5167	FEEDBACK	n/a	n/a	n/a	n/a	n/a	n/a	n/a	n/a
240.3117	1.0333	ITI	n/a	n/a	n/a	n/a	n/a	n/a	n/a	n/a
242.8034	n/a	RESPONSE	n/a	n/a	n/a	n/a	n/a	n/a	n/a	n/a
242.8617	1.0167	ITI	n/a	n/a	n/a	n/a	n/a	n/a	n/a	n/a
243.8784	0.5167	FIXCROSS	n/a	n/a	n/a	n/a	n/a	n/a	n/a	n/a
244.3951	1.1167	COLOR_NAME	1	Incongruent	zielony	green	żółty	yellow	hit	n/a
245.4907	n/a	RESPONSE	n/a	n/a	n/a	n/a	n/a	n/a	n/a	green
245.5117	1.0167	ITI	n/a	n/a	n/a	n/a	n/a	n/a	n/a	n/a
246.5284	0.5167	FIXCROSS	n/a	n/a	n/a	n/a	n/a	n/a	n/a	n/a
247.0451	0.7	COLOR_NAME	2	Neutral	zielony	green	Neutral	Neutral	hit	n/a
247.7142	n/a	RESPONSE	n/a	n/a	n/a	n/a	n/a	n/a	n/a	green
247.7451	1.0167	ITI	n/a	n/a	n/a	n/a	n/a	n/a	n/a	n/a
248.7618	0.5167	FIXCROSS	n/a	n/a	n/a	n/a	n/a	n/a	n/a	n/a
249.2784	0.6667	COLOR_NAME	3	Incongruent	zielony	green	niebieski	blue	hit	n/a
249.9216	n/a	RESPONSE	n/a	n/a	n/a	n/a	n/a	n/a	n/a	green
249.9451	1.0167	ITI	n/a	n/a	n/a	n/a	n/a	n/a	n/a	n/a
250.9618	0.5167	FIXCROSS	n/a	n/a	n/a	n/a	n/a	n/a	n/a	n/a
251.4785	0.7167	COLOR_NAME	4	Incongruent	czerwony	red	żółty	yellow	hit	n/a
252.1771	n/a	RESPONSE	n/a	n/a	n/a	n/a	n/a	n/a	n/a	red
252.1951	1.0167	ITI	n/a	n/a	n/a	n/a	n/a	n/a	n/a	n/a
253.2118	0.5167	FIXCROSS	n/a	n/a	n/a	n/a	n/a	n/a	n/a	n/a
253.7285	0.7	COLOR_NAME	5	Neutral	czerwony	red	Neutral	Neutral	hit	n/a
254.4005	n/a	RESPONSE	n/a	n/a	n/a	n/a	n/a	n/a	n/a	red
254.4285	1.0167	ITI	n/a	n/a	n/a	n/a	n/a	n/a	n/a	n/a
255.4452	0.5167	FIXCROSS	n/a	n/a	n/a	n/a	n/a	n/a	n/a	n/a
255.9618	0.6167	COLOR_NAME	6	Incongruent	czerwony	red	niebieski	blue	hit	n/a
256.56	n/a	RESPONSE	n/a	n/a	n/a	n/a	n/a	n/a	n/a	red
256.5785	1.0167	ITI	n/a	n/a	n/a	n/a	n/a	n/a	n/a	n/a
257.5952	0.5167	FIXCROSS	n/a	n/a	n/a	n/a	n/a	n/a	n/a	n/a
258.1118	0.7667	COLOR_NAME	7	Incongruent	żółty	yellow	zielony	green	hit	n/a
258.8474	n/a	RESPONSE	n/a	n/a	n/a	n/a	n/a	n/a	n/a	yellow
258.8785	1.0167	ITI	n/a	n/a	n/a	n/a	n/a	n/a	n/a	n/a
259.8952	0.5167	FIXCROSS	n/a	n/a	n/a	n/a	n/a	n/a	n/a	n/a
260.4119	0.7167	COLOR_NAME	8	Incongruent	zielony	green	żółty	yellow	hit	n/a
261.1029	n/a	RESPONSE	n/a	n/a	n/a	n/a	n/a	n/a	n/a	green
261.1285	1.0167	ITI	n/a	n/a	n/a	n/a	n/a	n/a	n/a	n/a
262.1452	0.5167	FIXCROSS	n/a	n/a	n/a	n/a	n/a	n/a	n/a	n/a
262.6619	0.7333	COLOR_NAME	9	Incongruent	zielony	green	czerwony	red	hit	n/a
263.3743	n/a	RESPONSE	n/a	n/a	n/a	n/a	n/a	n/a	n/a	green
263.3952	1.0167	ITI	n/a	n/a	n/a	n/a	n/a	n/a	n/a	n/a
264.4119	0.5167	FIXCROSS	n/a	n/a	n/a	n/a	n/a	n/a	n/a	n/a
264.9285	0.6333	COLOR_NAME	10	Incongruent	niebieski	blue	czerwony	red	hit	n/a
265.5338	n/a	RESPONSE	n/a	n/a	n/a	n/a	n/a	n/a	n/a	blue
265.5619	1.0167	ITI	n/a	n/a	n/a	n/a	n/a	n/a	n/a	n/a
266.5786	0.5167	FIXCROSS	n/a	n/a	n/a	n/a	n/a	n/a	n/a	n/a
267.0952	0.5667	COLOR_NAME	11	Incongruent	niebieski	blue	żółty	yellow	hit	n/a
267.6293	n/a	RESPONSE	n/a	n/a	n/a	n/a	n/a	n/a	n/a	blue
267.6619	1.0167	ITI	n/a	n/a	n/a	n/a	n/a	n/a	n/a	n/a
268.6786	0.5167	FIXCROSS	n/a	n/a	n/a	n/a	n/a	n/a	n/a	n/a
269.1953	0.5167	COLOR_NAME	12	Neutral	niebieski	blue	Neutral	Neutral	hit	n/a
269.6928	n/a	RESPONSE	n/a	n/a	n/a	n/a	n/a	n/a	n/a	blue
269.7119	1.0167	ITI	n/a	n/a	n/a	n/a	n/a	n/a	n/a	n/a
270.7286	0.5167	FIXCROSS	n/a	n/a	n/a	n/a	n/a	n/a	n/a	n/a
271.2453	1.0	COLOR_NAME	13	Incongruent	zielony	green	niebieski	blue	hit	n/a
272.2201	n/a	RESPONSE	n/a	n/a	n/a	n/a	n/a	n/a	n/a	green
272.2453	1.0167	ITI	n/a	n/a	n/a	n/a	n/a	n/a	n/a	n/a
273.2619	0.5167	FIXCROSS	n/a	n/a	n/a	n/a	n/a	n/a	n/a	n/a
273.7786	0.7333	COLOR_NAME	14	Incongruent	niebieski	blue	żółty	yellow	hit	n/a
274.4916	n/a	RESPONSE	n/a	n/a	n/a	n/a	n/a	n/a	n/a	blue
274.5119	1.0167	ITI	n/a	n/a	n/a	n/a	n/a	n/a	n/a	n/a
275.5286	0.5167	FIXCROSS	n/a	n/a	n/a	n/a	n/a	n/a	n/a	n/a
276.0453	0.75	COLOR_NAME	15	Neutral	czerwony	red	Neutral	Neutral	hit	n/a
276.763	n/a	RESPONSE	n/a	n/a	n/a	n/a	n/a	n/a	n/a	red
276.7953	1.0167	ITI	n/a	n/a	n/a	n/a	n/a	n/a	n/a	n/a
277.812	0.5167	FIXCROSS	n/a	n/a	n/a	n/a	n/a	n/a	n/a	n/a
278.3286	0.6667	COLOR_NAME	16	Neutral	niebieski	blue	Neutral	Neutral	hit	n/a
278.9705	n/a	RESPONSE	n/a	n/a	n/a	n/a	n/a	n/a	n/a	blue
278.9953	1.0167	ITI	n/a	n/a	n/a	n/a	n/a	n/a	n/a	n/a
280.012	0.5167	FIXCROSS	n/a	n/a	n/a	n/a	n/a	n/a	n/a	n/a
280.5287	0.75	COLOR_NAME	17	Neutral	zielony	green	Neutral	Neutral	hit	n/a
281.2579	n/a	RESPONSE	n/a	n/a	n/a	n/a	n/a	n/a	n/a	green
281.2787	1.0167	ITI	n/a	n/a	n/a	n/a	n/a	n/a	n/a	n/a
282.2953	0.5167	FIXCROSS	n/a	n/a	n/a	n/a	n/a	n/a	n/a	n/a
282.812	0.65	COLOR_NAME	18	Neutral	zielony	green	Neutral	Neutral	hit	n/a
283.4334	n/a	RESPONSE	n/a	n/a	n/a	n/a	n/a	n/a	n/a	green
283.462	1.0167	ITI	n/a	n/a	n/a	n/a	n/a	n/a	n/a	n/a
284.4787	0.5167	FIXCROSS	n/a	n/a	n/a	n/a	n/a	n/a	n/a	n/a
284.9954	0.7333	COLOR_NAME	19	Incongruent	niebieski	blue	czerwony	red	hit	n/a
285.7048	n/a	RESPONSE	n/a	n/a	n/a	n/a	n/a	n/a	n/a	blue
285.7287	1.0167	ITI	n/a	n/a	n/a	n/a	n/a	n/a	n/a	n/a
286.7454	0.5167	FIXCROSS	n/a	n/a	n/a	n/a	n/a	n/a	n/a	n/a
287.262	0.7333	COLOR_NAME	20	Neutral	czerwony	red	Neutral	Neutral	hit	n/a
287.9762	n/a	RESPONSE	n/a	n/a	n/a	n/a	n/a	n/a	n/a	red
287.9954	1.0167	ITI	n/a	n/a	n/a	n/a	n/a	n/a	n/a	n/a
289.0121	0.5167	FIXCROSS	n/a	n/a	n/a	n/a	n/a	n/a	n/a	n/a
289.5287	0.6167	COLOR_NAME	21	Incongruent	czerwony	red	zielony	green	hit	n/a
290.1197	n/a	RESPONSE	n/a	n/a	n/a	n/a	n/a	n/a	n/a	red
290.1454	1.0167	ITI	n/a	n/a	n/a	n/a	n/a	n/a	n/a	n/a
291.1621	0.5167	FIXCROSS	n/a	n/a	n/a	n/a	n/a	n/a	n/a	n/a
291.6787	0.65	COLOR_NAME	22	Incongruent	niebieski	blue	zielony	green	hit	n/a
292.3111	n/a	RESPONSE	n/a	n/a	n/a	n/a	n/a	n/a	n/a	blue
292.3287	1.0167	ITI	n/a	n/a	n/a	n/a	n/a	n/a	n/a	n/a
293.3454	0.5167	FIXCROSS	n/a	n/a	n/a	n/a	n/a	n/a	n/a	n/a
293.8621	0.9167	COLOR_NAME	23	Incongruent	żółty	yellow	czerwony	red	hit	n/a
294.7585	n/a	RESPONSE	n/a	n/a	n/a	n/a	n/a	n/a	n/a	yellow
294.7787	1.0167	ITI	n/a	n/a	n/a	n/a	n/a	n/a	n/a	n/a
295.7954	0.5167	FIXCROSS	n/a	n/a	n/a	n/a	n/a	n/a	n/a	n/a
296.3121	0.6833	COLOR_NAME	24	Incongruent	czerwony	red	żółty	yellow	hit	n/a
296.966	n/a	RESPONSE	n/a	n/a	n/a	n/a	n/a	n/a	n/a	red
296.9954	1.0167	ITI	n/a	n/a	n/a	n/a	n/a	n/a	n/a	n/a
298.0121	0.5167	FIXCROSS	n/a	n/a	n/a	n/a	n/a	n/a	n/a	n/a
298.5288	0.7167	COLOR_NAME	25	Incongruent	czerwony	red	zielony	green	hit	n/a
299.2215	n/a	RESPONSE	n/a	n/a	n/a	n/a	n/a	n/a	n/a	red
299.2454	1.0166	ITI	n/a	n/a	n/a	n/a	n/a	n/a	n/a	n/a
300.262	0.5168	FIXCROSS	n/a	n/a	n/a	n/a	n/a	n/a	n/a	n/a
300.7788	0.8	COLOR_NAME	26	Neutral	żółty	yellow	Neutral	Neutral	hit	n/a
301.5569	n/a	RESPONSE	n/a	n/a	n/a	n/a	n/a	n/a	n/a	yellow
301.5788	1.0167	ITI	n/a	n/a	n/a	n/a	n/a	n/a	n/a	n/a
302.5955	0.5167	FIXCROSS	n/a	n/a	n/a	n/a	n/a	n/a	n/a	n/a
303.1121	0.8667	COLOR_NAME	27	Incongruent	niebieski	blue	czerwony	red	hit	n/a
303.9563	n/a	RESPONSE	n/a	n/a	n/a	n/a	n/a	n/a	n/a	blue
303.9788	1.0167	ITI	n/a	n/a	n/a	n/a	n/a	n/a	n/a	n/a
304.9955	0.5167	FIXCROSS	n/a	n/a	n/a	n/a	n/a	n/a	n/a	n/a
305.5122	0.6	COLOR_NAME	28	Neutral	niebieski	blue	Neutral	Neutral	hit	n/a
306.0837	n/a	RESPONSE	n/a	n/a	n/a	n/a	n/a	n/a	n/a	blue
306.1122	1.0167	ITI	n/a	n/a	n/a	n/a	n/a	n/a	n/a	n/a
307.1288	0.5167	FIXCROSS	n/a	n/a	n/a	n/a	n/a	n/a	n/a	n/a
307.6455	0.5833	COLOR_NAME	29	Neutral	niebieski	blue	Neutral	Neutral	hit	n/a
308.2112	n/a	RESPONSE	n/a	n/a	n/a	n/a	n/a	n/a	n/a	blue
308.2288	1.0167	ITI	n/a	n/a	n/a	n/a	n/a	n/a	n/a	n/a
309.2455	0.5167	FIXCROSS	n/a	n/a	n/a	n/a	n/a	n/a	n/a	n/a
309.7622	0.85	COLOR_NAME	30	Incongruent	czerwony	red	niebieski	blue	hit	n/a
310.5786	n/a	RESPONSE	n/a	n/a	n/a	n/a	n/a	n/a	n/a	red
310.6122	1.0167	ITI	n/a	n/a	n/a	n/a	n/a	n/a	n/a	n/a
311.6289	0.5167	FIXCROSS	n/a	n/a	n/a	n/a	n/a	n/a	n/a	n/a
312.1455	0.6667	COLOR_NAME	31	Neutral	niebieski	blue	Neutral	Neutral	hit	n/a
312.7861	n/a	RESPONSE	n/a	n/a	n/a	n/a	n/a	n/a	n/a	blue
312.8122	1.0167	ITI	n/a	n/a	n/a	n/a	n/a	n/a	n/a	n/a
313.8289	0.5167	FIXCROSS	n/a	n/a	n/a	n/a	n/a	n/a	n/a	n/a
314.3455	1.0333	COLOR_NAME	32	Neutral	zielony	green	Neutral	Neutral	hit	n/a
315.3454	n/a	RESPONSE	n/a	n/a	n/a	n/a	n/a	n/a	n/a	green
315.3789	1.0167	ITI	n/a	n/a	n/a	n/a	n/a	n/a	n/a	n/a
316.3956	0.5167	FIXCROSS	n/a	n/a	n/a	n/a	n/a	n/a	n/a	n/a
316.9122	0.75	COLOR_NAME	33	Incongruent	niebieski	blue	zielony	green	hit	n/a
317.6329	n/a	RESPONSE	n/a	n/a	n/a	n/a	n/a	n/a	n/a	blue
317.6622	1.0167	ITI	n/a	n/a	n/a	n/a	n/a	n/a	n/a	n/a
318.6789	0.5167	FIXCROSS	n/a	n/a	n/a	n/a	n/a	n/a	n/a	n/a
319.1956	0.75	COLOR_NAME	34	Neutral	żółty	yellow	Neutral	Neutral	hit	n/a
319.9203	n/a	RESPONSE	n/a	n/a	n/a	n/a	n/a	n/a	n/a	yellow
319.9456	1.0167	ITI	n/a	n/a	n/a	n/a	n/a	n/a	n/a	n/a
320.9623	0.5167	FIXCROSS	n/a	n/a	n/a	n/a	n/a	n/a	n/a	n/a
321.4789	0.6	COLOR_NAME	35	Neutral	czerwony	red	Neutral	Neutral	hit	n/a
322.0478	n/a	RESPONSE	n/a	n/a	n/a	n/a	n/a	n/a	n/a	red
322.0789	1.0167	ITI	n/a	n/a	n/a	n/a	n/a	n/a	n/a	n/a
323.0956	0.5167	FIXCROSS	n/a	n/a	n/a	n/a	n/a	n/a	n/a	n/a
323.6123	0.6667	COLOR_NAME	36	Incongruent	czerwony	red	zielony	green	hit	n/a
324.2552	n/a	RESPONSE	n/a	n/a	n/a	n/a	n/a	n/a	n/a	red
324.2789	1.0167	ITI	n/a	n/a	n/a	n/a	n/a	n/a	n/a	n/a
325.2956	0.5167	FIXCROSS	n/a	n/a	n/a	n/a	n/a	n/a	n/a	n/a
325.8123	0.8333	COLOR_NAME	37	Neutral	zielony	green	Neutral	Neutral	hit	n/a
326.6226	n/a	RESPONSE	n/a	n/a	n/a	n/a	n/a	n/a	n/a	green
326.6456	1.0167	ITI	n/a	n/a	n/a	n/a	n/a	n/a	n/a	n/a
327.6623	0.5167	FIXCROSS	n/a	n/a	n/a	n/a	n/a	n/a	n/a	n/a
328.179	0.8333	COLOR_NAME	38	Neutral	czerwony	red	Neutral	Neutral	hit	n/a
328.9901	n/a	RESPONSE	n/a	n/a	n/a	n/a	n/a	n/a	n/a	red
329.0123	1.0167	ITI	n/a	n/a	n/a	n/a	n/a	n/a	n/a	n/a
330.029	0.5167	FIXCROSS	n/a	n/a	n/a	n/a	n/a	n/a	n/a	n/a
330.5457	0.7333	COLOR_NAME	39	Neutral	niebieski	blue	Neutral	Neutral	hit	n/a
331.2455	n/a	RESPONSE	n/a	n/a	n/a	n/a	n/a	n/a	n/a	blue
331.279	1.0167	ITI	n/a	n/a	n/a	n/a	n/a	n/a	n/a	n/a
332.2957	0.5167	FIXCROSS	n/a	n/a	n/a	n/a	n/a	n/a	n/a	n/a
332.8123	0.8667	COLOR_NAME	40	Incongruent	żółty	yellow	czerwony	red	hit	n/a
333.6609	n/a	RESPONSE	n/a	n/a	n/a	n/a	n/a	n/a	n/a	yellow
333.679	1.0167	ITI	n/a	n/a	n/a	n/a	n/a	n/a	n/a	n/a
334.6957	0.5167	FIXCROSS	n/a	n/a	n/a	n/a	n/a	n/a	n/a	n/a
335.2124	0.65	COLOR_NAME	41	Neutral	żółty	yellow	Neutral	Neutral	hit	n/a
335.8364	n/a	RESPONSE	n/a	n/a	n/a	n/a	n/a	n/a	n/a	yellow
335.8624	1.0167	ITI	n/a	n/a	n/a	n/a	n/a	n/a	n/a	n/a
336.879	0.5167	FIXCROSS	n/a	n/a	n/a	n/a	n/a	n/a	n/a	n/a
337.3957	0.6167	COLOR_NAME	42	Neutral	żółty	yellow	Neutral	Neutral	hit	n/a
337.9798	n/a	RESPONSE	n/a	n/a	n/a	n/a	n/a	n/a	n/a	yellow
338.0124	1.0167	ITI	n/a	n/a	n/a	n/a	n/a	n/a	n/a	n/a
339.029	0.5167	FIXCROSS	n/a	n/a	n/a	n/a	n/a	n/a	n/a	n/a
339.5457	0.75	COLOR_NAME	43	Neutral	niebieski	blue	Neutral	Neutral	hit	n/a
340.2672	n/a	RESPONSE	n/a	n/a	n/a	n/a	n/a	n/a	n/a	blue
340.2957	1.0167	ITI	n/a	n/a	n/a	n/a	n/a	n/a	n/a	n/a
341.3124	0.5167	FIXCROSS	n/a	n/a	n/a	n/a	n/a	n/a	n/a	n/a
341.8291	0.7167	COLOR_NAME	44	Neutral	żółty	yellow	Neutral	Neutral	hit	n/a
342.5227	n/a	RESPONSE	n/a	n/a	n/a	n/a	n/a	n/a	n/a	yellow
342.5457	1.0167	ITI	n/a	n/a	n/a	n/a	n/a	n/a	n/a	n/a
343.5624	0.5167	FIXCROSS	n/a	n/a	n/a	n/a	n/a	n/a	n/a	n/a
344.0791	0.7	COLOR_NAME	45	Neutral	żółty	yellow	Neutral	Neutral	hit	n/a
344.7461	n/a	RESPONSE	n/a	n/a	n/a	n/a	n/a	n/a	n/a	yellow
344.7791	1.0167	ITI	n/a	n/a	n/a	n/a	n/a	n/a	n/a	n/a
345.7958	0.5167	FIXCROSS	n/a	n/a	n/a	n/a	n/a	n/a	n/a	n/a
346.3124	1.45	COLOR_NAME	46	Incongruent	zielony	green	czerwony	red	hit	n/a
347.7374	n/a	RESPONSE	n/a	n/a	n/a	n/a	n/a	n/a	n/a	green
347.7624	1.0167	ITI	n/a	n/a	n/a	n/a	n/a	n/a	n/a	n/a
348.7791	0.5167	FIXCROSS	n/a	n/a	n/a	n/a	n/a	n/a	n/a	n/a
349.2958	0.6333	COLOR_NAME	47	Neutral	niebieski	blue	Neutral	Neutral	hit	n/a
349.8969	n/a	RESPONSE	n/a	n/a	n/a	n/a	n/a	n/a	n/a	blue
349.9291	1.0167	ITI	n/a	n/a	n/a	n/a	n/a	n/a	n/a	n/a
350.9458	0.5167	FIXCROSS	n/a	n/a	n/a	n/a	n/a	n/a	n/a	n/a
351.4625	0.7333	COLOR_NAME	48	Incongruent	żółty	yellow	niebieski	blue	hit	n/a
352.1683	n/a	RESPONSE	n/a	n/a	n/a	n/a	n/a	n/a	n/a	yellow
352.1958	1.0167	ITI	n/a	n/a	n/a	n/a	n/a	n/a	n/a	n/a
353.2125	0.5167	FIXCROSS	n/a	n/a	n/a	n/a	n/a	n/a	n/a	n/a
353.7291	1.1333	COLOR_NAME	49	Incongruent	zielony	green	czerwony	red	hit	n/a
354.8397	n/a	RESPONSE	n/a	n/a	n/a	n/a	n/a	n/a	n/a	green
354.8625	1.0167	ITI	n/a	n/a	n/a	n/a	n/a	n/a	n/a	n/a
355.8792	0.5167	FIXCROSS	n/a	n/a	n/a	n/a	n/a	n/a	n/a	n/a
356.3958	0.5833	COLOR_NAME	50	Neutral	zielony	green	Neutral	Neutral	hit	n/a
356.9511	n/a	RESPONSE	n/a	n/a	n/a	n/a	n/a	n/a	n/a	green
356.9792	1.0167	ITI	n/a	n/a	n/a	n/a	n/a	n/a	n/a	n/a
357.9958	0.5167	FIXCROSS	n/a	n/a	n/a	n/a	n/a	n/a	n/a	n/a
358.5125	0.8167	COLOR_NAME	51	Incongruent	żółty	yellow	zielony	green	hit	n/a
359.3025	n/a	RESPONSE	n/a	n/a	n/a	n/a	n/a	n/a	n/a	yellow
359.3292	1.0167	ITI	n/a	n/a	n/a	n/a	n/a	n/a	n/a	n/a
360.3458	0.5167	FIXCROSS	n/a	n/a	n/a	n/a	n/a	n/a	n/a	n/a
360.8625	0.9	COLOR_NAME	52	Incongruent	niebieski	blue	zielony	green	hit	n/a
361.7339	n/a	RESPONSE	n/a	n/a	n/a	n/a	n/a	n/a	n/a	blue
361.7625	1.0167	ITI	n/a	n/a	n/a	n/a	n/a	n/a	n/a	n/a
362.7792	0.5167	FIXCROSS	n/a	n/a	n/a	n/a	n/a	n/a	n/a	n/a
363.2959	0.7667	COLOR_NAME	53	Neutral	czerwony	red	Neutral	Neutral	hit	n/a
364.0374	n/a	RESPONSE	n/a	n/a	n/a	n/a	n/a	n/a	n/a	red
364.0625	1.0167	ITI	n/a	n/a	n/a	n/a	n/a	n/a	n/a	n/a
365.0792	0.5167	FIXCROSS	n/a	n/a	n/a	n/a	n/a	n/a	n/a	n/a
365.5959	0.8	COLOR_NAME	54	Incongruent	żółty	yellow	czerwony	red	hit	n/a
366.3728	n/a	RESPONSE	n/a	n/a	n/a	n/a	n/a	n/a	n/a	yellow
366.3959	1.0167	ITI	n/a	n/a	n/a	n/a	n/a	n/a	n/a	n/a
367.4126	0.5167	FIXCROSS	n/a	n/a	n/a	n/a	n/a	n/a	n/a	n/a
367.9292	0.7833	COLOR_NAME	55	Neutral	żółty	yellow	Neutral	Neutral	hit	n/a
368.6922	n/a	RESPONSE	n/a	n/a	n/a	n/a	n/a	n/a	n/a	yellow
368.7126	1.0167	ITI	n/a	n/a	n/a	n/a	n/a	n/a	n/a	n/a
369.7292	0.5167	FIXCROSS	n/a	n/a	n/a	n/a	n/a	n/a	n/a	n/a
370.2459	0.5167	COLOR_NAME	56	Incongruent	żółty	yellow	niebieski	blue	hit	n/a
370.7397	n/a	RESPONSE	n/a	n/a	n/a	n/a	n/a	n/a	n/a	yellow
370.7626	1.0167	ITI	n/a	n/a	n/a	n/a	n/a	n/a	n/a	n/a
371.7793	0.5167	FIXCROSS	n/a	n/a	n/a	n/a	n/a	n/a	n/a	n/a
372.2959	0.8667	COLOR_NAME	57	Incongruent	czerwony	red	żółty	yellow	hit	n/a
373.1391	n/a	RESPONSE	n/a	n/a	n/a	n/a	n/a	n/a	n/a	red
373.1626	1.0167	ITI	n/a	n/a	n/a	n/a	n/a	n/a	n/a	n/a
374.1793	0.5167	FIXCROSS	n/a	n/a	n/a	n/a	n/a	n/a	n/a	n/a
374.696	1.1	COLOR_NAME	58	Neutral	zielony	green	Neutral	Neutral	hit	n/a
375.7785	n/a	RESPONSE	n/a	n/a	n/a	n/a	n/a	n/a	n/a	green
375.796	1.0167	ITI	n/a	n/a	n/a	n/a	n/a	n/a	n/a	n/a
376.8126	0.5167	FIXCROSS	n/a	n/a	n/a	n/a	n/a	n/a	n/a	n/a
377.3293	0.8667	COLOR_NAME	59	Incongruent	zielony	green	żółty	yellow	hit	n/a
378.1779	n/a	RESPONSE	n/a	n/a	n/a	n/a	n/a	n/a	n/a	green
378.196	1.0167	ITI	n/a	n/a	n/a	n/a	n/a	n/a	n/a	n/a
379.2126	0.5167	FIXCROSS	n/a	n/a	n/a	n/a	n/a	n/a	n/a	n/a
379.7293	0.8	COLOR_NAME	60	Neutral	żółty	yellow	Neutral	Neutral	hit	n/a
380.4973	n/a	RESPONSE	n/a	n/a	n/a	n/a	n/a	n/a	n/a	yellow
380.5293	1.0167	ITI	n/a	n/a	n/a	n/a	n/a	n/a	n/a	n/a
381.546	0.5167	FIXCROSS	n/a	n/a	n/a	n/a	n/a	n/a	n/a	n/a
382.0627	0.85	COLOR_NAME	61	Neutral	zielony	green	Neutral	Neutral	hit	n/a
382.8807	n/a	RESPONSE	n/a	n/a	n/a	n/a	n/a	n/a	n/a	green
382.9127	1.0167	ITI	n/a	n/a	n/a	n/a	n/a	n/a	n/a	n/a
383.9293	0.5167	FIXCROSS	n/a	n/a	n/a	n/a	n/a	n/a	n/a	n/a
384.446	0.8167	COLOR_NAME	62	Incongruent	żółty	yellow	niebieski	blue	hit	n/a
385.2321	n/a	RESPONSE	n/a	n/a	n/a	n/a	n/a	n/a	n/a	yellow
385.2627	1.0167	ITI	n/a	n/a	n/a	n/a	n/a	n/a	n/a	n/a
386.2794	0.5167	FIXCROSS	n/a	n/a	n/a	n/a	n/a	n/a	n/a	n/a
386.796	0.8667	COLOR_NAME	63	Incongruent	czerwony	red	niebieski	blue	hit	n/a
387.6315	n/a	RESPONSE	n/a	n/a	n/a	n/a	n/a	n/a	n/a	red
387.6627	1.0167	ITI	n/a	n/a	n/a	n/a	n/a	n/a	n/a	n/a
388.6794	0.5167	FIXCROSS	n/a	n/a	n/a	n/a	n/a	n/a	n/a	n/a
389.196	0.7333	COLOR_NAME	64	Neutral	niebieski	blue	Neutral	Neutral	hit	n/a
389.903	n/a	RESPONSE	n/a	n/a	n/a	n/a	n/a	n/a	n/a	blue
389.9294	1.0167	ITI	n/a	n/a	n/a	n/a	n/a	n/a	n/a	n/a
390.9461	0.5167	FIXCROSS	n/a	n/a	n/a	n/a	n/a	n/a	n/a	n/a
391.4627	1.1667	COLOR_NAME	65	Neutral	zielony	green	Neutral	Neutral	hit	n/a
392.6063	n/a	RESPONSE	n/a	n/a	n/a	n/a	n/a	n/a	n/a	green
392.6294	1.0167	ITI	n/a	n/a	n/a	n/a	n/a	n/a	n/a	n/a
393.6461	0.5167	FIXCROSS	n/a	n/a	n/a	n/a	n/a	n/a	n/a	n/a
394.1627	0.8	COLOR_NAME	66	Incongruent	zielony	green	niebieski	blue	hit	n/a
394.9417	n/a	RESPONSE	n/a	n/a	n/a	n/a	n/a	n/a	n/a	green
394.9628	1.0167	ITI	n/a	n/a	n/a	n/a	n/a	n/a	n/a	n/a
395.9794	0.5167	FIXCROSS	n/a	n/a	n/a	n/a	n/a	n/a	n/a	n/a
396.4961	0.7	COLOR_NAME	67	Neutral	czerwony	red	Neutral	Neutral	hit	n/a
397.1651	n/a	RESPONSE	n/a	n/a	n/a	n/a	n/a	n/a	n/a	red
397.1961	1.0167	ITI	n/a	n/a	n/a	n/a	n/a	n/a	n/a	n/a
398.2128	0.5167	FIXCROSS	n/a	n/a	n/a	n/a	n/a	n/a	n/a	n/a
398.7294	0.65	COLOR_NAME	68	Neutral	żółty	yellow	Neutral	Neutral	hit	n/a
399.3566	n/a	RESPONSE	n/a	n/a	n/a	n/a	n/a	n/a	n/a	yellow
399.3794	1.0167	ITI	n/a	n/a	n/a	n/a	n/a	n/a	n/a	n/a
400.3961	0.5167	FIXCROSS	n/a	n/a	n/a	n/a	n/a	n/a	n/a	n/a
400.9128	0.65	COLOR_NAME	69	Neutral	czerwony	red	Neutral	Neutral	hit	n/a
401.5321	n/a	RESPONSE	n/a	n/a	n/a	n/a	n/a	n/a	n/a	red
401.5628	1.0167	ITI	n/a	n/a	n/a	n/a	n/a	n/a	n/a	n/a
402.5795	0.5167	FIXCROSS	n/a	n/a	n/a	n/a	n/a	n/a	n/a	n/a
403.0961	0.7	COLOR_NAME	70	Incongruent	żółty	yellow	zielony	green	hit	n/a
403.7715	n/a	RESPONSE	n/a	n/a	n/a	n/a	n/a	n/a	n/a	yellow
403.7961	1.0167	ITI	n/a	n/a	n/a	n/a	n/a	n/a	n/a	n/a
404.8128	0.5167	FIXCROSS	n/a	n/a	n/a	n/a	n/a	n/a	n/a	n/a
405.3295	0.7667	COLOR_NAME	71	Neutral	czerwony	red	Neutral	Neutral	incorrect	n/a
406.0749	n/a	RESPONSE	n/a	n/a	n/a	n/a	n/a	n/a	n/a	green
406.0962	1.0167	ITI	n/a	n/a	n/a	n/a	n/a	n/a	n/a	n/a
407.1128	0.5167	FIXCROSS	n/a	n/a	n/a	n/a	n/a	n/a	n/a	n/a
407.6295	0.7833	COLOR_NAME	72	Incongruent	niebieski	blue	żółty	yellow	hit	n/a
408.3944	n/a	RESPONSE	n/a	n/a	n/a	n/a	n/a	n/a	n/a	blue
408.4128	1.0333	ITI	n/a	n/a	n/a	n/a	n/a	n/a	n/a	n/a
412.3454	n/a	RESPONSE	n/a	n/a	n/a	n/a	n/a	n/a	n/a	n/a
