onset	duration	trial_type	trial_number	stroop_condition	stim_text(PL)	stim_text(eng)	stim_color(PL)	stim_color(eng)	response_type	response_color
0.0	n/a	RESPONSE	n/a	n/a	n/a	n/a	n/a	n/a	n/a	n/a
0.0257	1.0167	ITI	n/a	n/a	n/a	n/a	n/a	n/a	n/a	n/a
1.0424	0.5	FIXCROSS	n/a	n/a	n/a	n/a	n/a	n/a	n/a	n/a
1.5424	4.4167	T_INK	1	Neutral	xxxxxxxxx	xxxxxxxxx	czerwony	red	hit	n/a
5.9188	n/a	RESPONSE	n/a	n/a	n/a	n/a	n/a	n/a	n/a	red
5.9591	0.5167	FEEDBACK	n/a	n/a	n/a	n/a	n/a	n/a	n/a	n/a
6.4758	1.0167	ITI	n/a	n/a	n/a	n/a	n/a	n/a	n/a	n/a
7.4924	0.5167	FIXCROSS	n/a	n/a	n/a	n/a	n/a	n/a	n/a	n/a
8.0091	1.4333	T_INK	2	Incongruent	czerwony	red	niebieski	blue	hit	n/a
9.4061	n/a	RESPONSE	n/a	n/a	n/a	n/a	n/a	n/a	n/a	blue
9.4424	0.5167	FEEDBACK	n/a	n/a	n/a	n/a	n/a	n/a	n/a	n/a
9.9591	1.0167	ITI	n/a	n/a	n/a	n/a	n/a	n/a	n/a	n/a
10.9758	0.5167	FIXCROSS	n/a	n/a	n/a	n/a	n/a	n/a	n/a	n/a
11.4925	0.8167	T_INK	3	Neutral	xxxxxxxxx	xxxxxxxxx	żółty	yellow	hit	n/a
12.2855	n/a	RESPONSE	n/a	n/a	n/a	n/a	n/a	n/a	n/a	yellow
12.3091	0.5167	FEEDBACK	n/a	n/a	n/a	n/a	n/a	n/a	n/a	n/a
12.8258	1.0167	ITI	n/a	n/a	n/a	n/a	n/a	n/a	n/a	n/a
13.8425	0.5167	FIXCROSS	n/a	n/a	n/a	n/a	n/a	n/a	n/a	n/a
14.3592	1.0167	T_INK	4	Incongruent	czerwony	red	zielony	green	hit	n/a
15.3408	n/a	RESPONSE	n/a	n/a	n/a	n/a	n/a	n/a	n/a	green
15.3758	0.5167	FEEDBACK	n/a	n/a	n/a	n/a	n/a	n/a	n/a	n/a
15.8925	1.0167	ITI	n/a	n/a	n/a	n/a	n/a	n/a	n/a	n/a
16.9092	0.5167	FIXCROSS	n/a	n/a	n/a	n/a	n/a	n/a	n/a	n/a
17.4258	1.1833	T_INK	5	Incongruent	żółty	yellow	zielony	green	hit	n/a
18.5881	n/a	RESPONSE	n/a	n/a	n/a	n/a	n/a	n/a	n/a	green
18.6092	0.5167	FEEDBACK	n/a	n/a	n/a	n/a	n/a	n/a	n/a	n/a
19.1259	1.0167	ITI	n/a	n/a	n/a	n/a	n/a	n/a	n/a	n/a
20.1425	0.5167	FIXCROSS	n/a	n/a	n/a	n/a	n/a	n/a	n/a	n/a
20.6592	0.8834	T_INK	6	Incongruent	żółty	yellow	czerwony	red	hit	n/a
21.5155	n/a	RESPONSE	n/a	n/a	n/a	n/a	n/a	n/a	n/a	red
21.5425	0.5167	FEEDBACK	n/a	n/a	n/a	n/a	n/a	n/a	n/a	n/a
22.0592	1.0167	ITI	n/a	n/a	n/a	n/a	n/a	n/a	n/a	n/a
23.0759	0.5167	FIXCROSS	n/a	n/a	n/a	n/a	n/a	n/a	n/a	n/a
23.5926	0.9333	T_INK	7	Incongruent	czerwony	red	żółty	yellow	hit	n/a
24.5069	n/a	RESPONSE	n/a	n/a	n/a	n/a	n/a	n/a	n/a	yellow
24.5259	0.5167	FEEDBACK	n/a	n/a	n/a	n/a	n/a	n/a	n/a	n/a
25.0426	1.0167	ITI	n/a	n/a	n/a	n/a	n/a	n/a	n/a	n/a
26.0592	0.5167	FIXCROSS	n/a	n/a	n/a	n/a	n/a	n/a	n/a	n/a
26.5759	0.9333	T_INK	8	Incongruent	niebieski	blue	zielony	green	hit	n/a
27.4822	n/a	RESPONSE	n/a	n/a	n/a	n/a	n/a	n/a	n/a	green
27.5093	0.5167	FEEDBACK	n/a	n/a	n/a	n/a	n/a	n/a	n/a	n/a
28.0259	1.0167	ITI	n/a	n/a	n/a	n/a	n/a	n/a	n/a	n/a
29.0426	0.5167	FIXCROSS	n/a	n/a	n/a	n/a	n/a	n/a	n/a	n/a
29.5593	0.7	T_INK	9	Incongruent	zielony	green	żółty	yellow	hit	n/a
30.2337	n/a	RESPONSE	n/a	n/a	n/a	n/a	n/a	n/a	n/a	yellow
30.2593	0.5167	FEEDBACK	n/a	n/a	n/a	n/a	n/a	n/a	n/a	n/a
30.7759	1.0167	ITI	n/a	n/a	n/a	n/a	n/a	n/a	n/a	n/a
31.7926	0.5167	FIXCROSS	n/a	n/a	n/a	n/a	n/a	n/a	n/a	n/a
32.3093	0.5667	T_INK	10	Neutral	xxxxxxx	xxxxxxx	czerwony	red	hit	n/a
32.8571	n/a	RESPONSE	n/a	n/a	n/a	n/a	n/a	n/a	n/a	red
32.876	0.5167	FEEDBACK	n/a	n/a	n/a	n/a	n/a	n/a	n/a	n/a
33.3926	1.0167	ITI	n/a	n/a	n/a	n/a	n/a	n/a	n/a	n/a
34.4093	0.5167	FIXCROSS	n/a	n/a	n/a	n/a	n/a	n/a	n/a	n/a
34.926	0.45	T_INK	11	Incongruent	żółty	yellow	niebieski	blue	hit	n/a
35.3526	n/a	RESPONSE	n/a	n/a	n/a	n/a	n/a	n/a	n/a	blue
35.376	0.5167	FEEDBACK	n/a	n/a	n/a	n/a	n/a	n/a	n/a	n/a
35.8926	1.0167	ITI	n/a	n/a	n/a	n/a	n/a	n/a	n/a	n/a
36.9093	0.5167	FIXCROSS	n/a	n/a	n/a	n/a	n/a	n/a	n/a	n/a
37.426	0.5333	T_INK	12	Neutral	xxxxxxx	xxxxxxx	żółty	yellow	hit	n/a
37.928	n/a	RESPONSE	n/a	n/a	n/a	n/a	n/a	n/a	n/a	yellow
37.9593	0.5167	FEEDBACK	n/a	n/a	n/a	n/a	n/a	n/a	n/a	n/a
38.476	1.0333	ITI	n/a	n/a	n/a	n/a	n/a	n/a	n/a	n/a
49.5734	n/a	RESPONSE	n/a	n/a	n/a	n/a	n/a	n/a	n/a	n/a
49.6261	1.0167	ITI	n/a	n/a	n/a	n/a	n/a	n/a	n/a	n/a
50.6428	0.5167	FIXCROSS	n/a	n/a	n/a	n/a	n/a	n/a	n/a	n/a
51.1594	0.5833	INK	1	Incongruent	czerwony	red	niebieski	blue	hit	n/a
51.7168	n/a	RESPONSE	n/a	n/a	n/a	n/a	n/a	n/a	n/a	blue
51.7428	1.0167	ITI	n/a	n/a	n/a	n/a	n/a	n/a	n/a	n/a
52.7594	0.5167	FIXCROSS	n/a	n/a	n/a	n/a	n/a	n/a	n/a	n/a
53.2761	0.4667	INK	2	Incongruent	niebieski	blue	żółty	yellow	hit	n/a
53.7163	n/a	RESPONSE	n/a	n/a	n/a	n/a	n/a	n/a	n/a	yellow
53.7428	1.0167	ITI	n/a	n/a	n/a	n/a	n/a	n/a	n/a	n/a
54.7595	0.5167	FIXCROSS	n/a	n/a	n/a	n/a	n/a	n/a	n/a	n/a
55.2761	0.7833	INK	3	Incongruent	żółty	yellow	niebieski	blue	hit	n/a
56.0357	n/a	RESPONSE	n/a	n/a	n/a	n/a	n/a	n/a	n/a	blue
56.0595	1.0167	ITI	n/a	n/a	n/a	n/a	n/a	n/a	n/a	n/a
57.0761	0.5167	FIXCROSS	n/a	n/a	n/a	n/a	n/a	n/a	n/a	n/a
57.5928	0.6	INK	4	Neutral	xxxxxxx	xxxxxxx	żółty	yellow	hit	n/a
58.1631	n/a	RESPONSE	n/a	n/a	n/a	n/a	n/a	n/a	n/a	yellow
58.1928	1.0167	ITI	n/a	n/a	n/a	n/a	n/a	n/a	n/a	n/a
59.2095	0.5167	FIXCROSS	n/a	n/a	n/a	n/a	n/a	n/a	n/a	n/a
59.7262	0.4333	INK	5	Neutral	xxxxx	xxxxx	zielony	green	hit	n/a
60.1307	n/a	RESPONSE	n/a	n/a	n/a	n/a	n/a	n/a	n/a	green
60.1595	1.0167	ITI	n/a	n/a	n/a	n/a	n/a	n/a	n/a	n/a
61.1762	0.5167	FIXCROSS	n/a	n/a	n/a	n/a	n/a	n/a	n/a	n/a
61.6928	0.5333	INK	6	Neutral	xxxxxxxx	xxxxxxxx	zielony	green	hit	n/a
62.1942	n/a	RESPONSE	n/a	n/a	n/a	n/a	n/a	n/a	n/a	green
62.2262	1.0167	ITI	n/a	n/a	n/a	n/a	n/a	n/a	n/a	n/a
63.2429	0.5167	FIXCROSS	n/a	n/a	n/a	n/a	n/a	n/a	n/a	n/a
63.7595	0.8333	INK	7	Neutral	xxxxxxxx	xxxxxxxx	żółty	yellow	hit	n/a
64.5616	n/a	RESPONSE	n/a	n/a	n/a	n/a	n/a	n/a	n/a	yellow
64.5929	1.0167	ITI	n/a	n/a	n/a	n/a	n/a	n/a	n/a	n/a
65.6095	0.5167	FIXCROSS	n/a	n/a	n/a	n/a	n/a	n/a	n/a	n/a
66.1262	0.5	INK	8	Incongruent	żółty	yellow	czerwony	red	hit	n/a
66.5932	n/a	RESPONSE	n/a	n/a	n/a	n/a	n/a	n/a	n/a	red
66.6262	1.0167	ITI	n/a	n/a	n/a	n/a	n/a	n/a	n/a	n/a
67.6429	0.5167	FIXCROSS	n/a	n/a	n/a	n/a	n/a	n/a	n/a	n/a
68.1596	0.7167	INK	9	Neutral	xxxxxxxx	xxxxxxxx	niebieski	blue	hit	n/a
68.8487	n/a	RESPONSE	n/a	n/a	n/a	n/a	n/a	n/a	n/a	blue
68.8762	1.0167	ITI	n/a	n/a	n/a	n/a	n/a	n/a	n/a	n/a
69.8929	0.5167	FIXCROSS	n/a	n/a	n/a	n/a	n/a	n/a	n/a	n/a
70.4096	1.3667	INK	10	Incongruent	czerwony	red	zielony	green	hit	n/a
71.7441	n/a	RESPONSE	n/a	n/a	n/a	n/a	n/a	n/a	n/a	green
71.7762	1.0167	ITI	n/a	n/a	n/a	n/a	n/a	n/a	n/a	n/a
72.7929	0.5167	FIXCROSS	n/a	n/a	n/a	n/a	n/a	n/a	n/a	n/a
73.3096	0.6167	INK	11	Neutral	xxxxxxxx	xxxxxxxx	zielony	green	hit	n/a
73.9037	n/a	RESPONSE	n/a	n/a	n/a	n/a	n/a	n/a	n/a	green
73.9263	1.0167	ITI	n/a	n/a	n/a	n/a	n/a	n/a	n/a	n/a
74.9429	0.5167	FIXCROSS	n/a	n/a	n/a	n/a	n/a	n/a	n/a	n/a
75.4596	0.6	INK	12	Neutral	xxxxxxxxx	xxxxxxxxx	czerwony	red	hit	n/a
76.0313	n/a	RESPONSE	n/a	n/a	n/a	n/a	n/a	n/a	n/a	red
76.0596	1.0167	ITI	n/a	n/a	n/a	n/a	n/a	n/a	n/a	n/a
77.0763	0.5167	FIXCROSS	n/a	n/a	n/a	n/a	n/a	n/a	n/a	n/a
77.593	1.5834	INK	13	Neutral	xxxxxxxx	xxxxxxxx	zielony	green	hit	n/a
79.1508	n/a	RESPONSE	n/a	n/a	n/a	n/a	n/a	n/a	n/a	green
79.1763	1.0167	ITI	n/a	n/a	n/a	n/a	n/a	n/a	n/a	n/a
80.193	0.5167	FIXCROSS	n/a	n/a	n/a	n/a	n/a	n/a	n/a	n/a
80.7097	0.65	INK	14	Neutral	xxxxxxxxx	xxxxxxxxx	zielony	green	hit	n/a
81.3423	n/a	RESPONSE	n/a	n/a	n/a	n/a	n/a	n/a	n/a	green
81.3596	1.0167	ITI	n/a	n/a	n/a	n/a	n/a	n/a	n/a	n/a
82.3763	0.5167	FIXCROSS	n/a	n/a	n/a	n/a	n/a	n/a	n/a	n/a
82.893	0.7	INK	15	Neutral	xxxxx	xxxxx	niebieski	blue	hit	n/a
83.5659	n/a	RESPONSE	n/a	n/a	n/a	n/a	n/a	n/a	n/a	blue
83.593	1.0167	ITI	n/a	n/a	n/a	n/a	n/a	n/a	n/a	n/a
84.6097	0.5167	FIXCROSS	n/a	n/a	n/a	n/a	n/a	n/a	n/a	n/a
85.1264	0.5333	INK	16	Neutral	xxxxxxx	xxxxxxx	żółty	yellow	hit	n/a
85.6295	n/a	RESPONSE	n/a	n/a	n/a	n/a	n/a	n/a	n/a	yellow
85.6597	1.0167	ITI	n/a	n/a	n/a	n/a	n/a	n/a	n/a	n/a
86.6764	0.5167	FIXCROSS	n/a	n/a	n/a	n/a	n/a	n/a	n/a	n/a
87.193	0.55	INK	17	Neutral	xxxxxxx	xxxxxxx	czerwony	red	hit	n/a
87.7251	n/a	RESPONSE	n/a	n/a	n/a	n/a	n/a	n/a	n/a	red
87.743	1.0167	ITI	n/a	n/a	n/a	n/a	n/a	n/a	n/a	n/a
88.7597	0.5167	FIXCROSS	n/a	n/a	n/a	n/a	n/a	n/a	n/a	n/a
89.2764	0.65	INK	18	Incongruent	niebieski	blue	czerwony	red	hit	n/a
89.9007	n/a	RESPONSE	n/a	n/a	n/a	n/a	n/a	n/a	n/a	red
89.9264	1.0167	ITI	n/a	n/a	n/a	n/a	n/a	n/a	n/a	n/a
90.9431	0.5167	FIXCROSS	n/a	n/a	n/a	n/a	n/a	n/a	n/a	n/a
91.4597	1.0667	INK	19	Incongruent	niebieski	blue	zielony	green	hit	n/a
92.5082	n/a	RESPONSE	n/a	n/a	n/a	n/a	n/a	n/a	n/a	green
92.5264	1.0167	ITI	n/a	n/a	n/a	n/a	n/a	n/a	n/a	n/a
93.5431	0.5167	FIXCROSS	n/a	n/a	n/a	n/a	n/a	n/a	n/a	n/a
94.0598	0.85	INK	20	Incongruent	niebieski	blue	czerwony	red	hit	n/a
94.8916	n/a	RESPONSE	n/a	n/a	n/a	n/a	n/a	n/a	n/a	red
94.9097	1.0167	ITI	n/a	n/a	n/a	n/a	n/a	n/a	n/a	n/a
95.9264	0.5167	FIXCROSS	n/a	n/a	n/a	n/a	n/a	n/a	n/a	n/a
96.4431	0.4333	INK	21	Incongruent	zielony	green	niebieski	blue	hit	n/a
96.8431	n/a	RESPONSE	n/a	n/a	n/a	n/a	n/a	n/a	n/a	blue
96.8764	1.0167	ITI	n/a	n/a	n/a	n/a	n/a	n/a	n/a	n/a
97.8931	0.5167	FIXCROSS	n/a	n/a	n/a	n/a	n/a	n/a	n/a	n/a
98.4098	0.6834	INK	22	Incongruent	zielony	green	żółty	yellow	hit	n/a
99.0665	n/a	RESPONSE	n/a	n/a	n/a	n/a	n/a	n/a	n/a	yellow
99.0931	1.0167	ITI	n/a	n/a	n/a	n/a	n/a	n/a	n/a	n/a
100.1098	0.5167	FIXCROSS	n/a	n/a	n/a	n/a	n/a	n/a	n/a	n/a
100.6265	0.6667	INK	23	Neutral	xxxxxxxxx	xxxxxxxxx	żółty	yellow	hit	n/a
101.2739	n/a	RESPONSE	n/a	n/a	n/a	n/a	n/a	n/a	n/a	yellow
101.2931	1.0167	ITI	n/a	n/a	n/a	n/a	n/a	n/a	n/a	n/a
102.3098	0.5167	FIXCROSS	n/a	n/a	n/a	n/a	n/a	n/a	n/a	n/a
102.8265	0.6833	INK	24	Incongruent	niebieski	blue	zielony	green	hit	n/a
103.4815	n/a	RESPONSE	n/a	n/a	n/a	n/a	n/a	n/a	n/a	green
103.5098	1.0167	ITI	n/a	n/a	n/a	n/a	n/a	n/a	n/a	n/a
104.5265	0.5167	FIXCROSS	n/a	n/a	n/a	n/a	n/a	n/a	n/a	n/a
105.0432	0.7333	INK	25	Neutral	xxxxxxxx	xxxxxxxx	niebieski	blue	hit	n/a
105.7529	n/a	RESPONSE	n/a	n/a	n/a	n/a	n/a	n/a	n/a	blue
105.7765	1.0167	ITI	n/a	n/a	n/a	n/a	n/a	n/a	n/a	n/a
106.7932	0.5167	FIXCROSS	n/a	n/a	n/a	n/a	n/a	n/a	n/a	n/a
107.3098	1.0667	INK	26	Incongruent	zielony	green	żółty	yellow	hit	n/a
108.3443	n/a	RESPONSE	n/a	n/a	n/a	n/a	n/a	n/a	n/a	yellow
108.3765	1.0167	ITI	n/a	n/a	n/a	n/a	n/a	n/a	n/a	n/a
109.3932	0.5167	FIXCROSS	n/a	n/a	n/a	n/a	n/a	n/a	n/a	n/a
109.9099	0.55	INK	27	Incongruent	czerwony	red	żółty	yellow	hit	n/a
110.4399	n/a	RESPONSE	n/a	n/a	n/a	n/a	n/a	n/a	n/a	yellow
110.4599	1.0167	ITI	n/a	n/a	n/a	n/a	n/a	n/a	n/a	n/a
111.4765	0.5167	FIXCROSS	n/a	n/a	n/a	n/a	n/a	n/a	n/a	n/a
111.9932	0.6167	INK	28	Incongruent	niebieski	blue	żółty	yellow	hit	n/a
112.5834	n/a	RESPONSE	n/a	n/a	n/a	n/a	n/a	n/a	n/a	yellow
112.6099	1.0167	ITI	n/a	n/a	n/a	n/a	n/a	n/a	n/a	n/a
113.6265	0.5167	FIXCROSS	n/a	n/a	n/a	n/a	n/a	n/a	n/a	n/a
114.1432	0.5833	INK	29	Incongruent	żółty	yellow	czerwony	red	hit	n/a
114.6949	n/a	RESPONSE	n/a	n/a	n/a	n/a	n/a	n/a	n/a	red
114.7266	1.0167	ITI	n/a	n/a	n/a	n/a	n/a	n/a	n/a	n/a
115.7432	0.5167	FIXCROSS	n/a	n/a	n/a	n/a	n/a	n/a	n/a	n/a
116.2599	0.5	INK	30	Incongruent	zielony	green	czerwony	red	hit	n/a
116.7425	n/a	RESPONSE	n/a	n/a	n/a	n/a	n/a	n/a	n/a	red
116.7599	1.0167	ITI	n/a	n/a	n/a	n/a	n/a	n/a	n/a	n/a
117.7766	0.5167	FIXCROSS	n/a	n/a	n/a	n/a	n/a	n/a	n/a	n/a
118.2932	0.9	INK	31	Neutral	xxxxxxxx	xxxxxxxx	żółty	yellow	hit	n/a
119.174	n/a	RESPONSE	n/a	n/a	n/a	n/a	n/a	n/a	n/a	yellow
119.1933	1.0167	ITI	n/a	n/a	n/a	n/a	n/a	n/a	n/a	n/a
120.2099	0.5167	FIXCROSS	n/a	n/a	n/a	n/a	n/a	n/a	n/a	n/a
120.7266	0.6	INK	32	Incongruent	zielony	green	czerwony	red	hit	n/a
121.3015	n/a	RESPONSE	n/a	n/a	n/a	n/a	n/a	n/a	n/a	red
121.3266	1.0167	ITI	n/a	n/a	n/a	n/a	n/a	n/a	n/a	n/a
122.3433	0.5167	FIXCROSS	n/a	n/a	n/a	n/a	n/a	n/a	n/a	n/a
122.86	0.4833	INK	33	Neutral	xxxxx	xxxxx	zielony	green	hit	n/a
123.3171	n/a	RESPONSE	n/a	n/a	n/a	n/a	n/a	n/a	n/a	green
123.3433	1.0167	ITI	n/a	n/a	n/a	n/a	n/a	n/a	n/a	n/a
124.36	0.5167	FIXCROSS	n/a	n/a	n/a	n/a	n/a	n/a	n/a	n/a
124.8766	0.6333	INK	34	Incongruent	niebieski	blue	czerwony	red	hit	n/a
125.4926	n/a	RESPONSE	n/a	n/a	n/a	n/a	n/a	n/a	n/a	red
125.51	1.0167	ITI	n/a	n/a	n/a	n/a	n/a	n/a	n/a	n/a
126.5266	0.5167	FIXCROSS	n/a	n/a	n/a	n/a	n/a	n/a	n/a	n/a
127.0433	0.4	INK	35	Incongruent	zielony	green	niebieski	blue	incorrect	n/a
127.4122	n/a	RESPONSE	n/a	n/a	n/a	n/a	n/a	n/a	n/a	green
127.4282	n/a	RESPONSE	n/a	n/a	n/a	n/a	n/a	n/a	n/a	blue
127.4433	1.0167	ITI	n/a	n/a	n/a	n/a	n/a	n/a	n/a	n/a
128.46	0.5167	FIXCROSS	n/a	n/a	n/a	n/a	n/a	n/a	n/a	n/a
128.9767	0.75	INK	36	Neutral	xxxxxxxxx	xxxxxxxxx	czerwony	red	hit	n/a
129.6998	n/a	RESPONSE	n/a	n/a	n/a	n/a	n/a	n/a	n/a	red
129.7267	1.0167	ITI	n/a	n/a	n/a	n/a	n/a	n/a	n/a	n/a
130.7433	0.5167	FIXCROSS	n/a	n/a	n/a	n/a	n/a	n/a	n/a	n/a
131.26	0.5	INK	37	Neutral	xxxxx	xxxxx	niebieski	blue	hit	n/a
131.7314	n/a	RESPONSE	n/a	n/a	n/a	n/a	n/a	n/a	n/a	blue
131.76	1.0167	ITI	n/a	n/a	n/a	n/a	n/a	n/a	n/a	n/a
132.7767	0.5167	FIXCROSS	n/a	n/a	n/a	n/a	n/a	n/a	n/a	n/a
133.2934	0.4833	INK	38	Incongruent	zielony	green	niebieski	blue	hit	n/a
133.7469	n/a	RESPONSE	n/a	n/a	n/a	n/a	n/a	n/a	n/a	blue
133.7767	1.0167	ITI	n/a	n/a	n/a	n/a	n/a	n/a	n/a	n/a
134.7934	0.5167	FIXCROSS	n/a	n/a	n/a	n/a	n/a	n/a	n/a	n/a
135.31	1.2	INK	39	Incongruent	niebieski	blue	zielony	green	hit	n/a
136.4823	n/a	RESPONSE	n/a	n/a	n/a	n/a	n/a	n/a	n/a	green
136.51	1.0167	ITI	n/a	n/a	n/a	n/a	n/a	n/a	n/a	n/a
137.5267	0.5167	FIXCROSS	n/a	n/a	n/a	n/a	n/a	n/a	n/a	n/a
138.0434	0.9	INK	40	Incongruent	czerwony	red	żółty	yellow	hit	n/a
138.9138	n/a	RESPONSE	n/a	n/a	n/a	n/a	n/a	n/a	n/a	yellow
138.9434	1.0167	ITI	n/a	n/a	n/a	n/a	n/a	n/a	n/a	n/a
139.9601	0.5167	FIXCROSS	n/a	n/a	n/a	n/a	n/a	n/a	n/a	n/a
140.4767	0.7167	INK	41	Incongruent	żółty	yellow	niebieski	blue	hit	n/a
141.1693	n/a	RESPONSE	n/a	n/a	n/a	n/a	n/a	n/a	n/a	blue
141.1934	1.0167	ITI	n/a	n/a	n/a	n/a	n/a	n/a	n/a	n/a
142.2101	0.5167	FIXCROSS	n/a	n/a	n/a	n/a	n/a	n/a	n/a	n/a
142.7268	1.5167	INK	42	Neutral	xxxxxxxx	xxxxxxxx	żółty	yellow	hit	n/a
144.2247	n/a	RESPONSE	n/a	n/a	n/a	n/a	n/a	n/a	n/a	yellow
144.2434	1.0167	ITI	n/a	n/a	n/a	n/a	n/a	n/a	n/a	n/a
145.2601	0.5167	FIXCROSS	n/a	n/a	n/a	n/a	n/a	n/a	n/a	n/a
145.7768	0.5667	INK	43	Incongruent	zielony	green	żółty	yellow	hit	n/a
146.3202	n/a	RESPONSE	n/a	n/a	n/a	n/a	n/a	n/a	n/a	yellow
146.3434	1.0167	ITI	n/a	n/a	n/a	n/a	n/a	n/a	n/a	n/a
147.3601	0.5167	FIXCROSS	n/a	n/a	n/a	n/a	n/a	n/a	n/a	n/a
147.8768	0.6	INK	44	Neutral	xxxxxxxx	xxxxxxxx	niebieski	blue	hit	n/a
148.4478	n/a	RESPONSE	n/a	n/a	n/a	n/a	n/a	n/a	n/a	blue
148.4768	1.0167	ITI	n/a	n/a	n/a	n/a	n/a	n/a	n/a	n/a
148.6557	n/a	RESPONSE	n/a	n/a	n/a	n/a	n/a	n/a	n/a	blue
149.4935	0.5167	FIXCROSS	n/a	n/a	n/a	n/a	n/a	n/a	n/a	n/a
150.0101	0.5167	INK	45	Incongruent	czerwony	red	niebieski	blue	hit	n/a
150.4953	n/a	RESPONSE	n/a	n/a	n/a	n/a	n/a	n/a	n/a	blue
150.5268	1.0167	ITI	n/a	n/a	n/a	n/a	n/a	n/a	n/a	n/a
151.5435	0.5167	FIXCROSS	n/a	n/a	n/a	n/a	n/a	n/a	n/a	n/a
152.0602	0.6167	INK	46	Incongruent	czerwony	red	niebieski	blue	hit	n/a
152.6549	n/a	RESPONSE	n/a	n/a	n/a	n/a	n/a	n/a	n/a	blue
152.6768	1.0167	ITI	n/a	n/a	n/a	n/a	n/a	n/a	n/a	n/a
153.6935	0.5167	FIXCROSS	n/a	n/a	n/a	n/a	n/a	n/a	n/a	n/a
154.2102	0.4167	INK	47	Neutral	xxxxxxx	xxxxxxx	niebieski	blue	hit	n/a
154.6065	n/a	RESPONSE	n/a	n/a	n/a	n/a	n/a	n/a	n/a	blue
154.6268	1.0167	ITI	n/a	n/a	n/a	n/a	n/a	n/a	n/a	n/a
155.6435	0.5167	FIXCROSS	n/a	n/a	n/a	n/a	n/a	n/a	n/a	n/a
156.1602	0.6333	INK	48	Incongruent	żółty	yellow	czerwony	red	hit	n/a
156.766	n/a	RESPONSE	n/a	n/a	n/a	n/a	n/a	n/a	n/a	red
156.7935	1.0167	ITI	n/a	n/a	n/a	n/a	n/a	n/a	n/a	n/a
157.8102	0.5167	FIXCROSS	n/a	n/a	n/a	n/a	n/a	n/a	n/a	n/a
158.3269	0.4833	INK	49	Neutral	xxxxx	xxxxx	czerwony	red	hit	n/a
158.7816	n/a	RESPONSE	n/a	n/a	n/a	n/a	n/a	n/a	n/a	red
158.8102	1.0167	ITI	n/a	n/a	n/a	n/a	n/a	n/a	n/a	n/a
159.8269	0.5167	FIXCROSS	n/a	n/a	n/a	n/a	n/a	n/a	n/a	n/a
160.3436	0.4333	INK	50	Incongruent	żółty	yellow	zielony	green	hit	n/a
160.7492	n/a	RESPONSE	n/a	n/a	n/a	n/a	n/a	n/a	n/a	green
160.7769	1.0167	ITI	n/a	n/a	n/a	n/a	n/a	n/a	n/a	n/a
161.7936	0.5167	FIXCROSS	n/a	n/a	n/a	n/a	n/a	n/a	n/a	n/a
162.3102	0.4	INK	51	Incongruent	czerwony	red	zielony	green	hit	n/a
162.6848	n/a	RESPONSE	n/a	n/a	n/a	n/a	n/a	n/a	n/a	green
162.7102	1.0167	ITI	n/a	n/a	n/a	n/a	n/a	n/a	n/a	n/a
163.7269	0.5167	FIXCROSS	n/a	n/a	n/a	n/a	n/a	n/a	n/a	n/a
164.2436	0.5167	INK	52	Incongruent	żółty	yellow	zielony	green	hit	n/a
164.7323	n/a	RESPONSE	n/a	n/a	n/a	n/a	n/a	n/a	n/a	green
164.7602	1.0167	ITI	n/a	n/a	n/a	n/a	n/a	n/a	n/a	n/a
165.7769	0.5167	FIXCROSS	n/a	n/a	n/a	n/a	n/a	n/a	n/a	n/a
166.2936	0.6667	INK	53	Neutral	xxxxxxxxx	xxxxxxxxx	żółty	yellow	hit	n/a
166.9399	n/a	RESPONSE	n/a	n/a	n/a	n/a	n/a	n/a	n/a	yellow
166.9603	1.0167	ITI	n/a	n/a	n/a	n/a	n/a	n/a	n/a	n/a
167.9769	0.5167	FIXCROSS	n/a	n/a	n/a	n/a	n/a	n/a	n/a	n/a
168.4936	0.7	INK	54	Incongruent	zielony	green	czerwony	red	hit	n/a
169.1634	n/a	RESPONSE	n/a	n/a	n/a	n/a	n/a	n/a	n/a	red
169.1936	1.0167	ITI	n/a	n/a	n/a	n/a	n/a	n/a	n/a	n/a
170.2103	0.5167	FIXCROSS	n/a	n/a	n/a	n/a	n/a	n/a	n/a	n/a
170.727	0.4667	INK	55	Neutral	xxxxxxx	xxxxxxx	czerwony	red	hit	n/a
171.163	n/a	RESPONSE	n/a	n/a	n/a	n/a	n/a	n/a	n/a	red
171.1936	1.0167	ITI	n/a	n/a	n/a	n/a	n/a	n/a	n/a	n/a
172.2103	0.5167	FIXCROSS	n/a	n/a	n/a	n/a	n/a	n/a	n/a	n/a
172.727	0.6167	INK	56	Neutral	xxxxxxx	xxxxxxx	niebieski	blue	hit	n/a
173.3225	n/a	RESPONSE	n/a	n/a	n/a	n/a	n/a	n/a	n/a	blue
173.3436	1.0167	ITI	n/a	n/a	n/a	n/a	n/a	n/a	n/a	n/a
173.5465	n/a	RESPONSE	n/a	n/a	n/a	n/a	n/a	n/a	n/a	blue
174.3603	0.5167	FIXCROSS	n/a	n/a	n/a	n/a	n/a	n/a	n/a	n/a
174.877	0.7167	INK	57	Incongruent	niebieski	blue	żółty	yellow	incorrect	n/a
175.5621	n/a	RESPONSE	n/a	n/a	n/a	n/a	n/a	n/a	n/a	green
175.5937	1.0167	ITI	n/a	n/a	n/a	n/a	n/a	n/a	n/a	n/a
176.6103	0.5167	FIXCROSS	n/a	n/a	n/a	n/a	n/a	n/a	n/a	n/a
177.127	1.4333	INK	58	Incongruent	żółty	yellow	niebieski	blue	incorrect	n/a
178.5374	n/a	RESPONSE	n/a	n/a	n/a	n/a	n/a	n/a	n/a	yellow
178.5603	1.0167	ITI	n/a	n/a	n/a	n/a	n/a	n/a	n/a	n/a
179.577	0.5167	FIXCROSS	n/a	n/a	n/a	n/a	n/a	n/a	n/a	n/a
180.0937	0.8	INK	59	Neutral	xxxxx	xxxxx	czerwony	red	hit	n/a
180.8729	n/a	RESPONSE	n/a	n/a	n/a	n/a	n/a	n/a	n/a	red
180.8937	1.0167	ITI	n/a	n/a	n/a	n/a	n/a	n/a	n/a	n/a
181.9104	0.5167	FIXCROSS	n/a	n/a	n/a	n/a	n/a	n/a	n/a	n/a
182.427	0.7834	INK	60	Neutral	xxxxxxxxx	xxxxxxxxx	żółty	yellow	hit	n/a
183.1925	n/a	RESPONSE	n/a	n/a	n/a	n/a	n/a	n/a	n/a	yellow
183.2104	1.0167	ITI	n/a	n/a	n/a	n/a	n/a	n/a	n/a	n/a
184.227	0.5167	FIXCROSS	n/a	n/a	n/a	n/a	n/a	n/a	n/a	n/a
184.7437	0.5	INK	61	Neutral	xxxxxxx	xxxxxxx	niebieski	blue	hit	n/a
185.224	n/a	RESPONSE	n/a	n/a	n/a	n/a	n/a	n/a	n/a	blue
185.2437	1.0167	ITI	n/a	n/a	n/a	n/a	n/a	n/a	n/a	n/a
186.2604	0.5167	FIXCROSS	n/a	n/a	n/a	n/a	n/a	n/a	n/a	n/a
186.7771	0.7	INK	62	Neutral	xxxxxxx	xxxxxxx	żółty	yellow	hit	n/a
187.4475	n/a	RESPONSE	n/a	n/a	n/a	n/a	n/a	n/a	n/a	yellow
187.4771	1.0167	ITI	n/a	n/a	n/a	n/a	n/a	n/a	n/a	n/a
188.4937	0.5167	FIXCROSS	n/a	n/a	n/a	n/a	n/a	n/a	n/a	n/a
189.0104	0.9333	INK	63	Neutral	xxxxx	xxxxx	zielony	green	hit	n/a
189.911	n/a	RESPONSE	n/a	n/a	n/a	n/a	n/a	n/a	n/a	green
189.9438	1.0167	ITI	n/a	n/a	n/a	n/a	n/a	n/a	n/a	n/a
190.9604	0.5167	FIXCROSS	n/a	n/a	n/a	n/a	n/a	n/a	n/a	n/a
191.4771	0.45	INK	64	Neutral	xxxxxxxxx	xxxxxxxxx	zielony	green	hit	n/a
191.8946	n/a	RESPONSE	n/a	n/a	n/a	n/a	n/a	n/a	n/a	green
191.9271	1.0167	ITI	n/a	n/a	n/a	n/a	n/a	n/a	n/a	n/a
192.9438	0.5167	FIXCROSS	n/a	n/a	n/a	n/a	n/a	n/a	n/a	n/a
193.4604	0.4833	INK	65	Neutral	xxxxxxx	xxxxxxx	czerwony	red	hit	n/a
193.9262	n/a	RESPONSE	n/a	n/a	n/a	n/a	n/a	n/a	n/a	red
193.9438	1.0167	ITI	n/a	n/a	n/a	n/a	n/a	n/a	n/a	n/a
194.9605	0.5167	FIXCROSS	n/a	n/a	n/a	n/a	n/a	n/a	n/a	n/a
195.4771	0.4	INK	66	Neutral	xxxxx	xxxxx	czerwony	red	hit	n/a
195.8458	n/a	RESPONSE	n/a	n/a	n/a	n/a	n/a	n/a	n/a	red
195.8771	1.0167	ITI	n/a	n/a	n/a	n/a	n/a	n/a	n/a	n/a
196.8938	0.5167	FIXCROSS	n/a	n/a	n/a	n/a	n/a	n/a	n/a	n/a
197.4105	1.5167	INK	67	Neutral	xxxxxxxxx	xxxxxxxxx	zielony	green	hit	n/a
198.9011	n/a	RESPONSE	n/a	n/a	n/a	n/a	n/a	n/a	n/a	green
198.9271	1.0167	ITI	n/a	n/a	n/a	n/a	n/a	n/a	n/a	n/a
199.9438	0.5167	FIXCROSS	n/a	n/a	n/a	n/a	n/a	n/a	n/a	n/a
200.4605	0.55	INK	68	Neutral	xxxxxxxxx	xxxxxxxxx	czerwony	red	hit	n/a
200.9807	n/a	RESPONSE	n/a	n/a	n/a	n/a	n/a	n/a	n/a	red
201.0105	1.0167	ITI	n/a	n/a	n/a	n/a	n/a	n/a	n/a	n/a
202.0272	0.5167	FIXCROSS	n/a	n/a	n/a	n/a	n/a	n/a	n/a	n/a
202.5438	0.7167	INK	69	Incongruent	żółty	yellow	zielony	green	hit	n/a
203.2362	n/a	RESPONSE	n/a	n/a	n/a	n/a	n/a	n/a	n/a	green
203.2605	1.0167	ITI	n/a	n/a	n/a	n/a	n/a	n/a	n/a	n/a
204.2772	0.5167	FIXCROSS	n/a	n/a	n/a	n/a	n/a	n/a	n/a	n/a
204.7939	1.0333	INK	70	Incongruent	czerwony	red	żółty	yellow	hit	n/a
205.7957	n/a	RESPONSE	n/a	n/a	n/a	n/a	n/a	n/a	n/a	yellow
205.8272	1.0167	ITI	n/a	n/a	n/a	n/a	n/a	n/a	n/a	n/a
206.8439	0.5167	FIXCROSS	n/a	n/a	n/a	n/a	n/a	n/a	n/a	n/a
207.3605	0.9	INK	71	Incongruent	czerwony	red	zielony	green	hit	n/a
208.2272	n/a	RESPONSE	n/a	n/a	n/a	n/a	n/a	n/a	n/a	green
208.2605	1.0167	ITI	n/a	n/a	n/a	n/a	n/a	n/a	n/a	n/a
209.2772	0.5167	FIXCROSS	n/a	n/a	n/a	n/a	n/a	n/a	n/a	n/a
209.7939	0.3667	INK	72	Neutral	xxxxx	xxxxx	niebieski	blue	hit	n/a
210.1308	n/a	RESPONSE	n/a	n/a	n/a	n/a	n/a	n/a	n/a	blue
210.1606	1.0833	ITI	n/a	n/a	n/a	n/a	n/a	n/a	n/a	n/a
220.4166	n/a	RESPONSE	n/a	n/a	n/a	n/a	n/a	n/a	n/a	n/a
220.4773	1.0167	ITI	n/a	n/a	n/a	n/a	n/a	n/a	n/a	n/a
221.494	0.5167	FIXCROSS	n/a	n/a	n/a	n/a	n/a	n/a	n/a	n/a
222.0106	1.2334	T_COLOR_NAME	1	Incongruent	czerwony	red	zielony	green	hit	n/a
223.216	n/a	RESPONSE	n/a	n/a	n/a	n/a	n/a	n/a	n/a	red
223.244	0.5167	FEEDBACK	n/a	n/a	n/a	n/a	n/a	n/a	n/a	n/a
223.7607	1.0167	ITI	n/a	n/a	n/a	n/a	n/a	n/a	n/a	n/a
224.7773	0.5167	FIXCROSS	n/a	n/a	n/a	n/a	n/a	n/a	n/a	n/a
225.294	1.05	T_COLOR_NAME	2	Incongruent	żółty	yellow	zielony	green	hit	n/a
226.3194	n/a	RESPONSE	n/a	n/a	n/a	n/a	n/a	n/a	n/a	yellow
226.344	0.5167	FEEDBACK	n/a	n/a	n/a	n/a	n/a	n/a	n/a	n/a
226.8607	1.0167	ITI	n/a	n/a	n/a	n/a	n/a	n/a	n/a	n/a
227.8773	0.5167	FIXCROSS	n/a	n/a	n/a	n/a	n/a	n/a	n/a	n/a
228.394	1.3333	T_COLOR_NAME	3	Neutral	zielony	green	Neutral	Neutral	hit	n/a
229.6946	n/a	RESPONSE	n/a	n/a	n/a	n/a	n/a	n/a	n/a	green
229.7274	0.5167	FEEDBACK	n/a	n/a	n/a	n/a	n/a	n/a	n/a	n/a
230.244	1.0167	ITI	n/a	n/a	n/a	n/a	n/a	n/a	n/a	n/a
231.2607	0.5167	FIXCROSS	n/a	n/a	n/a	n/a	n/a	n/a	n/a	n/a
231.7774	1.0667	T_COLOR_NAME	4	Incongruent	żółty	yellow	czerwony	red	hit	n/a
232.814	n/a	RESPONSE	n/a	n/a	n/a	n/a	n/a	n/a	n/a	yellow
232.844	0.5167	FEEDBACK	n/a	n/a	n/a	n/a	n/a	n/a	n/a	n/a
233.3607	1.0167	ITI	n/a	n/a	n/a	n/a	n/a	n/a	n/a	n/a
234.3774	0.5167	FIXCROSS	n/a	n/a	n/a	n/a	n/a	n/a	n/a	n/a
234.8941	0.9167	T_COLOR_NAME	5	Incongruent	czerwony	red	niebieski	blue	hit	n/a
235.7894	n/a	RESPONSE	n/a	n/a	n/a	n/a	n/a	n/a	n/a	red
235.8107	0.5167	FEEDBACK	n/a	n/a	n/a	n/a	n/a	n/a	n/a	n/a
236.3274	1.0167	ITI	n/a	n/a	n/a	n/a	n/a	n/a	n/a	n/a
237.3441	0.5167	FIXCROSS	n/a	n/a	n/a	n/a	n/a	n/a	n/a	n/a
237.8608	1.5	T_COLOR_NAME	6	Incongruent	niebieski	blue	zielony	green	hit	n/a
239.3406	n/a	RESPONSE	n/a	n/a	n/a	n/a	n/a	n/a	n/a	blue
239.3608	0.5167	FEEDBACK	n/a	n/a	n/a	n/a	n/a	n/a	n/a	n/a
239.8774	1.0167	ITI	n/a	n/a	n/a	n/a	n/a	n/a	n/a	n/a
240.8941	0.5167	FIXCROSS	n/a	n/a	n/a	n/a	n/a	n/a	n/a	n/a
241.4108	1.45	T_COLOR_NAME	7	Incongruent	czerwony	red	żółty	yellow	hit	n/a
242.8279	n/a	RESPONSE	n/a	n/a	n/a	n/a	n/a	n/a	n/a	red
242.8608	0.5167	FEEDBACK	n/a	n/a	n/a	n/a	n/a	n/a	n/a	n/a
243.3775	1.0167	ITI	n/a	n/a	n/a	n/a	n/a	n/a	n/a	n/a
244.3941	0.5167	FIXCROSS	n/a	n/a	n/a	n/a	n/a	n/a	n/a	n/a
244.9108	1.2167	T_COLOR_NAME	8	Neutral	niebieski	blue	Neutral	Neutral	hit	n/a
246.1072	n/a	RESPONSE	n/a	n/a	n/a	n/a	n/a	n/a	n/a	blue
246.1275	0.5167	FEEDBACK	n/a	n/a	n/a	n/a	n/a	n/a	n/a	n/a
246.6442	1.0166	ITI	n/a	n/a	n/a	n/a	n/a	n/a	n/a	n/a
247.6608	0.5167	FIXCROSS	n/a	n/a	n/a	n/a	n/a	n/a	n/a	n/a
248.1775	1.35	T_COLOR_NAME	9	Incongruent	zielony	green	żółty	yellow	hit	n/a
249.4985	n/a	RESPONSE	n/a	n/a	n/a	n/a	n/a	n/a	n/a	green
249.5275	0.5167	FEEDBACK	n/a	n/a	n/a	n/a	n/a	n/a	n/a	n/a
250.0442	1.0167	ITI	n/a	n/a	n/a	n/a	n/a	n/a	n/a	n/a
251.0608	0.5167	FIXCROSS	n/a	n/a	n/a	n/a	n/a	n/a	n/a	n/a
251.5775	0.9167	T_COLOR_NAME	10	Neutral	niebieski	blue	Neutral	Neutral	hit	n/a
252.4738	n/a	RESPONSE	n/a	n/a	n/a	n/a	n/a	n/a	n/a	blue
252.4942	0.5167	FEEDBACK	n/a	n/a	n/a	n/a	n/a	n/a	n/a	n/a
253.0109	1.0167	ITI	n/a	n/a	n/a	n/a	n/a	n/a	n/a	n/a
254.0275	0.5167	FIXCROSS	n/a	n/a	n/a	n/a	n/a	n/a	n/a	n/a
254.5442	0.8167	T_COLOR_NAME	11	Incongruent	żółty	yellow	niebieski	blue	hit	n/a
255.3372	n/a	RESPONSE	n/a	n/a	n/a	n/a	n/a	n/a	n/a	yellow
255.3609	0.5167	FEEDBACK	n/a	n/a	n/a	n/a	n/a	n/a	n/a	n/a
255.8775	1.0167	ITI	n/a	n/a	n/a	n/a	n/a	n/a	n/a	n/a
256.8942	0.5167	FIXCROSS	n/a	n/a	n/a	n/a	n/a	n/a	n/a	n/a
257.4109	1.5667	T_COLOR_NAME	12	Neutral	zielony	green	Neutral	Neutral	hit	n/a
258.9525	n/a	RESPONSE	n/a	n/a	n/a	n/a	n/a	n/a	n/a	green
258.9776	0.5167	FEEDBACK	n/a	n/a	n/a	n/a	n/a	n/a	n/a	n/a
259.4942	1.0333	ITI	n/a	n/a	n/a	n/a	n/a	n/a	n/a	n/a
262.6317	n/a	RESPONSE	n/a	n/a	n/a	n/a	n/a	n/a	n/a	n/a
262.6943	1.0167	ITI	n/a	n/a	n/a	n/a	n/a	n/a	n/a	n/a
263.7109	0.5167	FIXCROSS	n/a	n/a	n/a	n/a	n/a	n/a	n/a	n/a
264.2276	0.75	COLOR_NAME	1	Neutral	czerwony	red	Neutral	Neutral	hit	n/a
264.9512	n/a	RESPONSE	n/a	n/a	n/a	n/a	n/a	n/a	n/a	red
264.9776	1.0167	ITI	n/a	n/a	n/a	n/a	n/a	n/a	n/a	n/a
265.9943	0.5167	FIXCROSS	n/a	n/a	n/a	n/a	n/a	n/a	n/a	n/a
266.5109	0.6333	COLOR_NAME	2	Incongruent	czerwony	red	zielony	green	hit	n/a
267.1108	n/a	RESPONSE	n/a	n/a	n/a	n/a	n/a	n/a	n/a	red
267.1443	1.0167	ITI	n/a	n/a	n/a	n/a	n/a	n/a	n/a	n/a
268.161	0.5167	FIXCROSS	n/a	n/a	n/a	n/a	n/a	n/a	n/a	n/a
268.6776	0.55	COLOR_NAME	3	Neutral	czerwony	red	Neutral	Neutral	hit	n/a
269.2063	n/a	RESPONSE	n/a	n/a	n/a	n/a	n/a	n/a	n/a	red
269.2276	1.0167	ITI	n/a	n/a	n/a	n/a	n/a	n/a	n/a	n/a
270.2443	0.5167	FIXCROSS	n/a	n/a	n/a	n/a	n/a	n/a	n/a	n/a
270.761	1.95	COLOR_NAME	4	Neutral	zielony	green	Neutral	Neutral	hit	n/a
272.6936	n/a	RESPONSE	n/a	n/a	n/a	n/a	n/a	n/a	n/a	green
272.711	1.0167	ITI	n/a	n/a	n/a	n/a	n/a	n/a	n/a	n/a
273.7277	0.5167	FIXCROSS	n/a	n/a	n/a	n/a	n/a	n/a	n/a	n/a
274.2443	0.7333	COLOR_NAME	5	Incongruent	niebieski	blue	żółty	yellow	hit	n/a
274.9491	n/a	RESPONSE	n/a	n/a	n/a	n/a	n/a	n/a	n/a	blue
274.9777	1.0167	ITI	n/a	n/a	n/a	n/a	n/a	n/a	n/a	n/a
275.9943	0.5167	FIXCROSS	n/a	n/a	n/a	n/a	n/a	n/a	n/a	n/a
276.511	0.6667	COLOR_NAME	6	Incongruent	niebieski	blue	żółty	yellow	hit	n/a
277.1567	n/a	RESPONSE	n/a	n/a	n/a	n/a	n/a	n/a	n/a	blue
277.1777	1.0167	ITI	n/a	n/a	n/a	n/a	n/a	n/a	n/a	n/a
278.1944	0.5167	FIXCROSS	n/a	n/a	n/a	n/a	n/a	n/a	n/a	n/a
278.711	0.7667	COLOR_NAME	7	Neutral	żółty	yellow	Neutral	Neutral	hit	n/a
279.4601	n/a	RESPONSE	n/a	n/a	n/a	n/a	n/a	n/a	n/a	yellow
279.4777	1.0167	ITI	n/a	n/a	n/a	n/a	n/a	n/a	n/a	n/a
280.4944	0.5167	FIXCROSS	n/a	n/a	n/a	n/a	n/a	n/a	n/a	n/a
281.0111	0.8167	COLOR_NAME	8	Neutral	niebieski	blue	Neutral	Neutral	hit	n/a
281.7957	n/a	RESPONSE	n/a	n/a	n/a	n/a	n/a	n/a	n/a	blue
281.8277	1.0167	ITI	n/a	n/a	n/a	n/a	n/a	n/a	n/a	n/a
282.8444	0.5167	FIXCROSS	n/a	n/a	n/a	n/a	n/a	n/a	n/a	n/a
283.3611	0.7333	COLOR_NAME	9	Neutral	czerwony	red	Neutral	Neutral	hit	n/a
284.0673	n/a	RESPONSE	n/a	n/a	n/a	n/a	n/a	n/a	n/a	red
284.0944	1.0167	ITI	n/a	n/a	n/a	n/a	n/a	n/a	n/a	n/a
285.1111	0.5167	FIXCROSS	n/a	n/a	n/a	n/a	n/a	n/a	n/a	n/a
285.6277	0.85	COLOR_NAME	10	Incongruent	żółty	yellow	czerwony	red	hit	n/a
286.4507	n/a	RESPONSE	n/a	n/a	n/a	n/a	n/a	n/a	n/a	yellow
286.4778	1.0167	ITI	n/a	n/a	n/a	n/a	n/a	n/a	n/a	n/a
287.4944	0.5167	FIXCROSS	n/a	n/a	n/a	n/a	n/a	n/a	n/a	n/a
288.0111	0.7167	COLOR_NAME	11	Neutral	czerwony	red	Neutral	Neutral	hit	n/a
288.7062	n/a	RESPONSE	n/a	n/a	n/a	n/a	n/a	n/a	n/a	red
288.7278	1.0167	ITI	n/a	n/a	n/a	n/a	n/a	n/a	n/a	n/a
289.7445	0.5167	FIXCROSS	n/a	n/a	n/a	n/a	n/a	n/a	n/a	n/a
290.2611	1.0833	COLOR_NAME	12	Neutral	zielony	green	Neutral	Neutral	hit	n/a
291.3137	n/a	RESPONSE	n/a	n/a	n/a	n/a	n/a	n/a	n/a	green
291.3445	1.0167	ITI	n/a	n/a	n/a	n/a	n/a	n/a	n/a	n/a
292.3611	0.5167	FIXCROSS	n/a	n/a	n/a	n/a	n/a	n/a	n/a	n/a
292.8778	0.6333	COLOR_NAME	13	Neutral	niebieski	blue	Neutral	Neutral	hit	n/a
293.4892	n/a	RESPONSE	n/a	n/a	n/a	n/a	n/a	n/a	n/a	blue
293.5111	1.0167	ITI	n/a	n/a	n/a	n/a	n/a	n/a	n/a	n/a
294.5278	0.5167	FIXCROSS	n/a	n/a	n/a	n/a	n/a	n/a	n/a	n/a
295.0445	1.1833	COLOR_NAME	14	Neutral	zielony	green	Neutral	Neutral	hit	n/a
296.2086	n/a	RESPONSE	n/a	n/a	n/a	n/a	n/a	n/a	n/a	green
296.2278	1.0167	ITI	n/a	n/a	n/a	n/a	n/a	n/a	n/a	n/a
297.2445	0.5167	FIXCROSS	n/a	n/a	n/a	n/a	n/a	n/a	n/a	n/a
297.7612	0.55	COLOR_NAME	15	Incongruent	zielony	green	żółty	yellow	hit	n/a
298.2882	n/a	RESPONSE	n/a	n/a	n/a	n/a	n/a	n/a	n/a	green
298.3112	1.0167	ITI	n/a	n/a	n/a	n/a	n/a	n/a	n/a	n/a
299.3278	0.5167	FIXCROSS	n/a	n/a	n/a	n/a	n/a	n/a	n/a	n/a
299.8445	1.0333	COLOR_NAME	16	Incongruent	niebieski	blue	żółty	yellow	hit	n/a
300.8477	n/a	RESPONSE	n/a	n/a	n/a	n/a	n/a	n/a	n/a	blue
300.8778	1.0167	ITI	n/a	n/a	n/a	n/a	n/a	n/a	n/a	n/a
301.0236	n/a	RESPONSE	n/a	n/a	n/a	n/a	n/a	n/a	n/a	blue
301.8945	0.5167	FIXCROSS	n/a	n/a	n/a	n/a	n/a	n/a	n/a	n/a
302.4112	0.5333	COLOR_NAME	17	Neutral	niebieski	blue	Neutral	Neutral	hit	n/a
302.9272	n/a	RESPONSE	n/a	n/a	n/a	n/a	n/a	n/a	n/a	blue
302.9445	1.0167	ITI	n/a	n/a	n/a	n/a	n/a	n/a	n/a	n/a
303.9612	0.5167	FIXCROSS	n/a	n/a	n/a	n/a	n/a	n/a	n/a	n/a
304.4779	0.5	COLOR_NAME	18	Neutral	czerwony	red	Neutral	Neutral	hit	n/a
304.9588	n/a	RESPONSE	n/a	n/a	n/a	n/a	n/a	n/a	n/a	red
304.9779	1.0167	ITI	n/a	n/a	n/a	n/a	n/a	n/a	n/a	n/a
305.9946	0.5167	FIXCROSS	n/a	n/a	n/a	n/a	n/a	n/a	n/a	n/a
306.5112	0.45	COLOR_NAME	19	Incongruent	niebieski	blue	czerwony	red	incorrect	n/a
306.9424	n/a	RESPONSE	n/a	n/a	n/a	n/a	n/a	n/a	n/a	red
306.9612	1.0167	ITI	n/a	n/a	n/a	n/a	n/a	n/a	n/a	n/a
307.9779	0.5167	FIXCROSS	n/a	n/a	n/a	n/a	n/a	n/a	n/a	n/a
308.4946	1.3667	COLOR_NAME	20	Neutral	zielony	green	Neutral	Neutral	hit	n/a
309.8378	n/a	RESPONSE	n/a	n/a	n/a	n/a	n/a	n/a	n/a	green
309.8612	1.0167	ITI	n/a	n/a	n/a	n/a	n/a	n/a	n/a	n/a
310.8779	0.5167	FIXCROSS	n/a	n/a	n/a	n/a	n/a	n/a	n/a	n/a
311.3946	0.8333	COLOR_NAME	21	Incongruent	żółty	yellow	zielony	green	hit	n/a
312.2053	n/a	RESPONSE	n/a	n/a	n/a	n/a	n/a	n/a	n/a	yellow
312.2279	1.0167	ITI	n/a	n/a	n/a	n/a	n/a	n/a	n/a	n/a
313.2446	0.5167	FIXCROSS	n/a	n/a	n/a	n/a	n/a	n/a	n/a	n/a
313.7613	0.6333	COLOR_NAME	22	Incongruent	żółty	yellow	czerwony	red	hit	n/a
314.3648	n/a	RESPONSE	n/a	n/a	n/a	n/a	n/a	n/a	n/a	yellow
314.3946	1.0167	ITI	n/a	n/a	n/a	n/a	n/a	n/a	n/a	n/a
315.4113	0.5167	FIXCROSS	n/a	n/a	n/a	n/a	n/a	n/a	n/a	n/a
315.928	1.0	COLOR_NAME	23	Neutral	niebieski	blue	Neutral	Neutral	hit	n/a
316.9083	n/a	RESPONSE	n/a	n/a	n/a	n/a	n/a	n/a	n/a	blue
316.928	1.0167	ITI	n/a	n/a	n/a	n/a	n/a	n/a	n/a	n/a
317.9446	0.5167	FIXCROSS	n/a	n/a	n/a	n/a	n/a	n/a	n/a	n/a
318.4613	0.9	COLOR_NAME	24	Incongruent	żółty	yellow	niebieski	blue	hit	n/a
319.3398	n/a	RESPONSE	n/a	n/a	n/a	n/a	n/a	n/a	n/a	yellow
319.3613	1.0167	ITI	n/a	n/a	n/a	n/a	n/a	n/a	n/a	n/a
320.378	0.5167	FIXCROSS	n/a	n/a	n/a	n/a	n/a	n/a	n/a	n/a
320.8947	0.9	COLOR_NAME	25	Incongruent	zielony	green	czerwony	red	hit	n/a
321.7713	n/a	RESPONSE	n/a	n/a	n/a	n/a	n/a	n/a	n/a	green
321.7947	1.0167	ITI	n/a	n/a	n/a	n/a	n/a	n/a	n/a	n/a
322.8113	0.5167	FIXCROSS	n/a	n/a	n/a	n/a	n/a	n/a	n/a	n/a
323.328	0.9333	COLOR_NAME	26	Incongruent	czerwony	red	niebieski	blue	hit	n/a
324.2347	n/a	RESPONSE	n/a	n/a	n/a	n/a	n/a	n/a	n/a	red
324.2613	1.0167	ITI	n/a	n/a	n/a	n/a	n/a	n/a	n/a	n/a
325.278	0.5167	FIXCROSS	n/a	n/a	n/a	n/a	n/a	n/a	n/a	n/a
325.7947	0.8667	COLOR_NAME	27	Neutral	niebieski	blue	Neutral	Neutral	hit	n/a
326.6342	n/a	RESPONSE	n/a	n/a	n/a	n/a	n/a	n/a	n/a	blue
326.6614	1.0167	ITI	n/a	n/a	n/a	n/a	n/a	n/a	n/a	n/a
327.678	0.5167	FIXCROSS	n/a	n/a	n/a	n/a	n/a	n/a	n/a	n/a
328.1947	0.7	COLOR_NAME	28	Neutral	żółty	yellow	Neutral	Neutral	hit	n/a
328.8738	n/a	RESPONSE	n/a	n/a	n/a	n/a	n/a	n/a	n/a	yellow
328.8947	1.0167	ITI	n/a	n/a	n/a	n/a	n/a	n/a	n/a	n/a
329.9114	0.5167	FIXCROSS	n/a	n/a	n/a	n/a	n/a	n/a	n/a	n/a
330.4281	0.9	COLOR_NAME	29	Incongruent	żółty	yellow	zielony	green	hit	n/a
331.3053	n/a	RESPONSE	n/a	n/a	n/a	n/a	n/a	n/a	n/a	yellow
331.3281	1.0167	ITI	n/a	n/a	n/a	n/a	n/a	n/a	n/a	n/a
332.3447	0.5167	FIXCROSS	n/a	n/a	n/a	n/a	n/a	n/a	n/a	n/a
332.8614	1.0333	COLOR_NAME	30	Incongruent	zielony	green	czerwony	red	hit	n/a
333.8647	n/a	RESPONSE	n/a	n/a	n/a	n/a	n/a	n/a	n/a	green
333.8947	1.0167	ITI	n/a	n/a	n/a	n/a	n/a	n/a	n/a	n/a
334.9114	0.5167	FIXCROSS	n/a	n/a	n/a	n/a	n/a	n/a	n/a	n/a
335.4281	0.4833	COLOR_NAME	31	Neutral	zielony	green	Neutral	Neutral	hit	n/a
335.8803	n/a	RESPONSE	n/a	n/a	n/a	n/a	n/a	n/a	n/a	green
335.9114	1.0167	ITI	n/a	n/a	n/a	n/a	n/a	n/a	n/a	n/a
336.9281	0.5167	FIXCROSS	n/a	n/a	n/a	n/a	n/a	n/a	n/a	n/a
337.4448	0.4833	COLOR_NAME	32	Neutral	zielony	green	Neutral	Neutral	hit	n/a
337.8959	n/a	RESPONSE	n/a	n/a	n/a	n/a	n/a	n/a	n/a	green
337.9281	1.0167	ITI	n/a	n/a	n/a	n/a	n/a	n/a	n/a	n/a
338.9448	0.5167	FIXCROSS	n/a	n/a	n/a	n/a	n/a	n/a	n/a	n/a
339.4615	0.55	COLOR_NAME	33	Neutral	czerwony	red	Neutral	Neutral	hit	n/a
339.9914	n/a	RESPONSE	n/a	n/a	n/a	n/a	n/a	n/a	n/a	red
340.0115	1.0167	ITI	n/a	n/a	n/a	n/a	n/a	n/a	n/a	n/a
341.0281	0.5167	FIXCROSS	n/a	n/a	n/a	n/a	n/a	n/a	n/a	n/a
341.5448	0.8333	COLOR_NAME	34	Incongruent	niebieski	blue	zielony	green	hit	n/a
342.359	n/a	RESPONSE	n/a	n/a	n/a	n/a	n/a	n/a	n/a	blue
342.3781	1.0167	ITI	n/a	n/a	n/a	n/a	n/a	n/a	n/a	n/a
343.3948	0.5167	FIXCROSS	n/a	n/a	n/a	n/a	n/a	n/a	n/a	n/a
343.9115	0.8833	COLOR_NAME	35	Incongruent	czerwony	red	zielony	green	hit	n/a
344.7745	n/a	RESPONSE	n/a	n/a	n/a	n/a	n/a	n/a	n/a	red
344.7948	1.0167	ITI	n/a	n/a	n/a	n/a	n/a	n/a	n/a	n/a
345.8115	0.5167	FIXCROSS	n/a	n/a	n/a	n/a	n/a	n/a	n/a	n/a
346.3282	1.0167	COLOR_NAME	36	Incongruent	zielony	green	niebieski	blue	hit	n/a
347.3179	n/a	RESPONSE	n/a	n/a	n/a	n/a	n/a	n/a	n/a	green
347.3448	1.0167	ITI	n/a	n/a	n/a	n/a	n/a	n/a	n/a	n/a
348.3615	0.5167	FIXCROSS	n/a	n/a	n/a	n/a	n/a	n/a	n/a	n/a
348.8782	0.85	COLOR_NAME	37	Neutral	żółty	yellow	Neutral	Neutral	hit	n/a
349.7014	n/a	RESPONSE	n/a	n/a	n/a	n/a	n/a	n/a	n/a	yellow
349.7282	1.0167	ITI	n/a	n/a	n/a	n/a	n/a	n/a	n/a	n/a
350.7449	0.5167	FIXCROSS	n/a	n/a	n/a	n/a	n/a	n/a	n/a	n/a
351.2615	1.05	COLOR_NAME	38	Incongruent	zielony	green	czerwony	red	hit	n/a
352.2929	n/a	RESPONSE	n/a	n/a	n/a	n/a	n/a	n/a	n/a	green
352.3115	1.0167	ITI	n/a	n/a	n/a	n/a	n/a	n/a	n/a	n/a
353.3282	0.5167	FIXCROSS	n/a	n/a	n/a	n/a	n/a	n/a	n/a	n/a
353.8449	0.55	COLOR_NAME	39	Incongruent	niebieski	blue	zielony	green	hit	n/a
354.3724	n/a	RESPONSE	n/a	n/a	n/a	n/a	n/a	n/a	n/a	blue
354.3949	1.0167	ITI	n/a	n/a	n/a	n/a	n/a	n/a	n/a	n/a
355.4116	0.5167	FIXCROSS	n/a	n/a	n/a	n/a	n/a	n/a	n/a	n/a
355.9282	0.65	COLOR_NAME	40	Incongruent	czerwony	red	żółty	yellow	hit	n/a
356.5479	n/a	RESPONSE	n/a	n/a	n/a	n/a	n/a	n/a	n/a	red
356.5782	1.0167	ITI	n/a	n/a	n/a	n/a	n/a	n/a	n/a	n/a
357.5949	0.5167	FIXCROSS	n/a	n/a	n/a	n/a	n/a	n/a	n/a	n/a
358.1116	1.55	COLOR_NAME	41	Neutral	zielony	green	Neutral	Neutral	hit	n/a
359.6353	n/a	RESPONSE	n/a	n/a	n/a	n/a	n/a	n/a	n/a	green
359.6616	1.0167	ITI	n/a	n/a	n/a	n/a	n/a	n/a	n/a	n/a
360.6783	0.5167	FIXCROSS	n/a	n/a	n/a	n/a	n/a	n/a	n/a	n/a
361.1949	0.6833	COLOR_NAME	42	Incongruent	niebieski	blue	czerwony	red	hit	n/a
361.8588	n/a	RESPONSE	n/a	n/a	n/a	n/a	n/a	n/a	n/a	blue
361.8783	1.0167	ITI	n/a	n/a	n/a	n/a	n/a	n/a	n/a	n/a
362.8949	0.5167	FIXCROSS	n/a	n/a	n/a	n/a	n/a	n/a	n/a	n/a
363.4116	0.7833	COLOR_NAME	43	Neutral	żółty	yellow	Neutral	Neutral	hit	n/a
364.1623	n/a	RESPONSE	n/a	n/a	n/a	n/a	n/a	n/a	n/a	yellow
364.195	1.0167	ITI	n/a	n/a	n/a	n/a	n/a	n/a	n/a	n/a
365.2116	0.5167	FIXCROSS	n/a	n/a	n/a	n/a	n/a	n/a	n/a	n/a
365.7283	0.6667	COLOR_NAME	44	Incongruent	żółty	yellow	czerwony	red	hit	n/a
366.3699	n/a	RESPONSE	n/a	n/a	n/a	n/a	n/a	n/a	n/a	yellow
366.395	1.0167	ITI	n/a	n/a	n/a	n/a	n/a	n/a	n/a	n/a
367.4116	0.5167	FIXCROSS	n/a	n/a	n/a	n/a	n/a	n/a	n/a	n/a
367.9283	0.5333	COLOR_NAME	45	Incongruent	żółty	yellow	niebieski	blue	hit	n/a
368.4335	n/a	RESPONSE	n/a	n/a	n/a	n/a	n/a	n/a	n/a	yellow
368.4617	1.0167	ITI	n/a	n/a	n/a	n/a	n/a	n/a	n/a	n/a
369.4783	0.5167	FIXCROSS	n/a	n/a	n/a	n/a	n/a	n/a	n/a	n/a
369.995	0.85	COLOR_NAME	46	Neutral	zielony	green	Neutral	Neutral	hit	n/a
370.8169	n/a	RESPONSE	n/a	n/a	n/a	n/a	n/a	n/a	n/a	green
370.845	1.0167	ITI	n/a	n/a	n/a	n/a	n/a	n/a	n/a	n/a
371.8617	0.5167	FIXCROSS	n/a	n/a	n/a	n/a	n/a	n/a	n/a	n/a
372.3783	0.6667	COLOR_NAME	47	Incongruent	czerwony	red	zielony	green	hit	n/a
373.0245	n/a	RESPONSE	n/a	n/a	n/a	n/a	n/a	n/a	n/a	red
373.045	1.0167	ITI	n/a	n/a	n/a	n/a	n/a	n/a	n/a	n/a
374.0617	0.5167	FIXCROSS	n/a	n/a	n/a	n/a	n/a	n/a	n/a	n/a
374.5784	0.55	COLOR_NAME	48	Neutral	niebieski	blue	Neutral	Neutral	hit	n/a
375.104	n/a	RESPONSE	n/a	n/a	n/a	n/a	n/a	n/a	n/a	blue
375.1284	1.0167	ITI	n/a	n/a	n/a	n/a	n/a	n/a	n/a	n/a
375.328	n/a	RESPONSE	n/a	n/a	n/a	n/a	n/a	n/a	n/a	blue
376.145	0.5167	FIXCROSS	n/a	n/a	n/a	n/a	n/a	n/a	n/a	n/a
376.6617	1.05	COLOR_NAME	49	Incongruent	niebieski	blue	czerwony	red	hit	n/a
377.6795	n/a	RESPONSE	n/a	n/a	n/a	n/a	n/a	n/a	n/a	blue
377.7117	1.0167	ITI	n/a	n/a	n/a	n/a	n/a	n/a	n/a	n/a
378.7284	0.5167	FIXCROSS	n/a	n/a	n/a	n/a	n/a	n/a	n/a	n/a
379.2451	0.9	COLOR_NAME	50	Neutral	żółty	yellow	Neutral	Neutral	hit	n/a
380.127	n/a	RESPONSE	n/a	n/a	n/a	n/a	n/a	n/a	n/a	yellow
380.1451	1.0167	ITI	n/a	n/a	n/a	n/a	n/a	n/a	n/a	n/a
381.1617	0.5167	FIXCROSS	n/a	n/a	n/a	n/a	n/a	n/a	n/a	n/a
381.6784	0.4834	COLOR_NAME	51	Incongruent	żółty	yellow	zielony	green	hit	n/a
382.1426	n/a	RESPONSE	n/a	n/a	n/a	n/a	n/a	n/a	n/a	yellow
382.1617	1.0167	ITI	n/a	n/a	n/a	n/a	n/a	n/a	n/a	n/a
383.1784	0.5167	FIXCROSS	n/a	n/a	n/a	n/a	n/a	n/a	n/a	n/a
383.6951	0.6167	COLOR_NAME	52	Incongruent	zielony	green	żółty	yellow	hit	n/a
384.2861	n/a	RESPONSE	n/a	n/a	n/a	n/a	n/a	n/a	n/a	green
384.3118	1.0167	ITI	n/a	n/a	n/a	n/a	n/a	n/a	n/a	n/a
385.3284	0.5167	FIXCROSS	n/a	n/a	n/a	n/a	n/a	n/a	n/a	n/a
385.8451	0.6	COLOR_NAME	53	Neutral	żółty	yellow	Neutral	Neutral	incorrect	n/a
386.4137	n/a	RESPONSE	n/a	n/a	n/a	n/a	n/a	n/a	n/a	green
386.4451	1.0167	ITI	n/a	n/a	n/a	n/a	n/a	n/a	n/a	n/a
387.4618	0.5167	FIXCROSS	n/a	n/a	n/a	n/a	n/a	n/a	n/a	n/a
387.9784	1.5333	COLOR_NAME	54	Neutral	niebieski	blue	Neutral	Neutral	hit	n/a
389.485	n/a	RESPONSE	n/a	n/a	n/a	n/a	n/a	n/a	n/a	blue
389.5118	1.0167	ITI	n/a	n/a	n/a	n/a	n/a	n/a	n/a	n/a
389.677	n/a	RESPONSE	n/a	n/a	n/a	n/a	n/a	n/a	n/a	blue
390.5285	0.5167	FIXCROSS	n/a	n/a	n/a	n/a	n/a	n/a	n/a	n/a
391.0451	1.15	COLOR_NAME	55	Incongruent	zielony	green	niebieski	blue	hit	n/a
392.1725	n/a	RESPONSE	n/a	n/a	n/a	n/a	n/a	n/a	n/a	green
392.1951	1.0167	ITI	n/a	n/a	n/a	n/a	n/a	n/a	n/a	n/a
393.2118	0.5167	FIXCROSS	n/a	n/a	n/a	n/a	n/a	n/a	n/a	n/a
393.7285	0.65	COLOR_NAME	56	Neutral	niebieski	blue	Neutral	Neutral	hit	n/a
394.348	n/a	RESPONSE	n/a	n/a	n/a	n/a	n/a	n/a	n/a	blue
394.3785	1.0167	ITI	n/a	n/a	n/a	n/a	n/a	n/a	n/a	n/a
395.3952	0.5167	FIXCROSS	n/a	n/a	n/a	n/a	n/a	n/a	n/a	n/a
395.9118	0.8	COLOR_NAME	57	Incongruent	zielony	green	żółty	yellow	hit	n/a
396.6835	n/a	RESPONSE	n/a	n/a	n/a	n/a	n/a	n/a	n/a	green
396.7118	1.0167	ITI	n/a	n/a	n/a	n/a	n/a	n/a	n/a	n/a
397.7285	0.5167	FIXCROSS	n/a	n/a	n/a	n/a	n/a	n/a	n/a	n/a
398.2452	0.7667	COLOR_NAME	58	Neutral	żółty	yellow	Neutral	Neutral	hit	n/a
398.987	n/a	RESPONSE	n/a	n/a	n/a	n/a	n/a	n/a	n/a	yellow
399.0119	1.0167	ITI	n/a	n/a	n/a	n/a	n/a	n/a	n/a	n/a
400.0285	0.5167	FIXCROSS	n/a	n/a	n/a	n/a	n/a	n/a	n/a	n/a
400.5452	1.0	COLOR_NAME	59	Incongruent	czerwony	red	żółty	yellow	hit	n/a
401.5145	n/a	RESPONSE	n/a	n/a	n/a	n/a	n/a	n/a	n/a	red
401.5452	1.0167	ITI	n/a	n/a	n/a	n/a	n/a	n/a	n/a	n/a
402.5619	0.5167	FIXCROSS	n/a	n/a	n/a	n/a	n/a	n/a	n/a	n/a
403.0785	1.0167	COLOR_NAME	60	Incongruent	niebieski	blue	zielony	green	hit	n/a
404.074	n/a	RESPONSE	n/a	n/a	n/a	n/a	n/a	n/a	n/a	blue
404.0952	1.0167	ITI	n/a	n/a	n/a	n/a	n/a	n/a	n/a	n/a
405.1119	0.5167	FIXCROSS	n/a	n/a	n/a	n/a	n/a	n/a	n/a	n/a
405.6286	0.8167	COLOR_NAME	61	Incongruent	czerwony	red	niebieski	blue	hit	n/a
406.4095	n/a	RESPONSE	n/a	n/a	n/a	n/a	n/a	n/a	n/a	red
406.4452	1.0167	ITI	n/a	n/a	n/a	n/a	n/a	n/a	n/a	n/a
407.4619	0.5167	FIXCROSS	n/a	n/a	n/a	n/a	n/a	n/a	n/a	n/a
407.9786	0.9167	COLOR_NAME	62	Neutral	niebieski	blue	Neutral	Neutral	hit	n/a
408.873	n/a	RESPONSE	n/a	n/a	n/a	n/a	n/a	n/a	n/a	blue
408.8953	1.0167	ITI	n/a	n/a	n/a	n/a	n/a	n/a	n/a	n/a
409.0969	n/a	RESPONSE	n/a	n/a	n/a	n/a	n/a	n/a	n/a	blue
409.9119	0.5167	FIXCROSS	n/a	n/a	n/a	n/a	n/a	n/a	n/a	n/a
410.4286	0.8333	COLOR_NAME	63	Neutral	czerwony	red	Neutral	Neutral	hit	n/a
411.2404	n/a	RESPONSE	n/a	n/a	n/a	n/a	n/a	n/a	n/a	red
411.2619	1.0167	ITI	n/a	n/a	n/a	n/a	n/a	n/a	n/a	n/a
412.2786	0.5167	FIXCROSS	n/a	n/a	n/a	n/a	n/a	n/a	n/a	n/a
412.7953	0.7	COLOR_NAME	64	Incongruent	żółty	yellow	niebieski	blue	hit	n/a
413.464	n/a	RESPONSE	n/a	n/a	n/a	n/a	n/a	n/a	n/a	yellow
413.4953	1.0167	ITI	n/a	n/a	n/a	n/a	n/a	n/a	n/a	n/a
414.512	0.5167	FIXCROSS	n/a	n/a	n/a	n/a	n/a	n/a	n/a	n/a
415.0286	0.7	COLOR_NAME	65	Neutral	czerwony	red	Neutral	Neutral	hit	n/a
415.7035	n/a	RESPONSE	n/a	n/a	n/a	n/a	n/a	n/a	n/a	red
415.7286	1.0167	ITI	n/a	n/a	n/a	n/a	n/a	n/a	n/a	n/a
416.7453	0.5167	FIXCROSS	n/a	n/a	n/a	n/a	n/a	n/a	n/a	n/a
417.262	0.75	COLOR_NAME	66	Neutral	żółty	yellow	Neutral	Neutral	hit	n/a
417.991	n/a	RESPONSE	n/a	n/a	n/a	n/a	n/a	n/a	n/a	yellow
418.012	1.0167	ITI	n/a	n/a	n/a	n/a	n/a	n/a	n/a	n/a
419.0287	0.5167	FIXCROSS	n/a	n/a	n/a	n/a	n/a	n/a	n/a	n/a
419.5453	0.6667	COLOR_NAME	67	Neutral	żółty	yellow	Neutral	Neutral	hit	n/a
420.1825	n/a	RESPONSE	n/a	n/a	n/a	n/a	n/a	n/a	n/a	yellow
420.212	1.0167	ITI	n/a	n/a	n/a	n/a	n/a	n/a	n/a	n/a
421.2287	0.5167	FIXCROSS	n/a	n/a	n/a	n/a	n/a	n/a	n/a	n/a
421.7453	0.7333	COLOR_NAME	68	Incongruent	zielony	green	niebieski	blue	hit	n/a
422.4541	n/a	RESPONSE	n/a	n/a	n/a	n/a	n/a	n/a	n/a	green
422.4787	1.0167	ITI	n/a	n/a	n/a	n/a	n/a	n/a	n/a	n/a
423.4954	0.5167	FIXCROSS	n/a	n/a	n/a	n/a	n/a	n/a	n/a	n/a
424.012	0.6833	COLOR_NAME	69	Incongruent	czerwony	red	niebieski	blue	hit	n/a
424.6776	n/a	RESPONSE	n/a	n/a	n/a	n/a	n/a	n/a	n/a	red
424.6954	1.0167	ITI	n/a	n/a	n/a	n/a	n/a	n/a	n/a	n/a
425.712	0.5167	FIXCROSS	n/a	n/a	n/a	n/a	n/a	n/a	n/a	n/a
426.2287	1.45	COLOR_NAME	70	Neutral	zielony	green	Neutral	Neutral	incorrect	n/a
427.653	n/a	RESPONSE	n/a	n/a	n/a	n/a	n/a	n/a	n/a	blue
427.6787	1.0167	ITI	n/a	n/a	n/a	n/a	n/a	n/a	n/a	n/a
428.6954	0.5167	FIXCROSS	n/a	n/a	n/a	n/a	n/a	n/a	n/a	n/a
429.2121	0.95	COLOR_NAME	71	Incongruent	czerwony	red	żółty	yellow	hit	n/a
430.1325	n/a	RESPONSE	n/a	n/a	n/a	n/a	n/a	n/a	n/a	red
430.1621	1.0167	ITI	n/a	n/a	n/a	n/a	n/a	n/a	n/a	n/a
431.1788	0.5167	FIXCROSS	n/a	n/a	n/a	n/a	n/a	n/a	n/a	n/a
431.6954	0.6167	COLOR_NAME	72	Neutral	czerwony	red	Neutral	Neutral	hit	n/a
432.292	n/a	RESPONSE	n/a	n/a	n/a	n/a	n/a	n/a	n/a	red
432.3121	1.0333	ITI	n/a	n/a	n/a	n/a	n/a	n/a	n/a	n/a
436.7391	n/a	RESPONSE	n/a	n/a	n/a	n/a	n/a	n/a	n/a	n/a
