onset	duration	trial_type	trial_number	stroop_condition	stim_text(PL)	stim_text(eng)	stim_color(PL)	stim_color(eng)	response_type	response_color
0.0	n/a	RESPONSE	n/a	n/a	n/a	n/a	n/a	n/a	n/a	red
0.0	n/a	RESPONSE	n/a	n/a	n/a	n/a	n/a	n/a	n/a	red
0.0001	n/a	RESPONSE	n/a	n/a	n/a	n/a	n/a	n/a	n/a	blue
0.0001	n/a	RESPONSE	n/a	n/a	n/a	n/a	n/a	n/a	n/a	blue
0.0001	n/a	RESPONSE	n/a	n/a	n/a	n/a	n/a	n/a	n/a	red
0.0001	n/a	RESPONSE	n/a	n/a	n/a	n/a	n/a	n/a	n/a	red
0.0001	n/a	RESPONSE	n/a	n/a	n/a	n/a	n/a	n/a	n/a	red
0.0001	n/a	RESPONSE	n/a	n/a	n/a	n/a	n/a	n/a	n/a	blue
0.0001	n/a	RESPONSE	n/a	n/a	n/a	n/a	n/a	n/a	n/a	yellow
0.0002	n/a	RESPONSE	n/a	n/a	n/a	n/a	n/a	n/a	n/a	yellow
0.0002	n/a	RESPONSE	n/a	n/a	n/a	n/a	n/a	n/a	n/a	green
0.0002	n/a	RESPONSE	n/a	n/a	n/a	n/a	n/a	n/a	n/a	green
0.0002	n/a	RESPONSE	n/a	n/a	n/a	n/a	n/a	n/a	n/a	green
0.0002	n/a	RESPONSE	n/a	n/a	n/a	n/a	n/a	n/a	n/a	yellow
0.0002	n/a	RESPONSE	n/a	n/a	n/a	n/a	n/a	n/a	n/a	red
0.0002	n/a	RESPONSE	n/a	n/a	n/a	n/a	n/a	n/a	n/a	green
0.0003	n/a	RESPONSE	n/a	n/a	n/a	n/a	n/a	n/a	n/a	green
0.0003	n/a	RESPONSE	n/a	n/a	n/a	n/a	n/a	n/a	n/a	blue
0.0003	n/a	RESPONSE	n/a	n/a	n/a	n/a	n/a	n/a	n/a	yellow
0.0003	n/a	RESPONSE	n/a	n/a	n/a	n/a	n/a	n/a	n/a	green
0.0003	n/a	RESPONSE	n/a	n/a	n/a	n/a	n/a	n/a	n/a	yellow
0.0009	n/a	RESPONSE	n/a	n/a	n/a	n/a	n/a	n/a	n/a	yellow
0.0009	n/a	RESPONSE	n/a	n/a	n/a	n/a	n/a	n/a	n/a	yellow
0.0009	n/a	RESPONSE	n/a	n/a	n/a	n/a	n/a	n/a	n/a	yellow
0.001	n/a	RESPONSE	n/a	n/a	n/a	n/a	n/a	n/a	n/a	blue
0.001	n/a	RESPONSE	n/a	n/a	n/a	n/a	n/a	n/a	n/a	green
0.001	n/a	RESPONSE	n/a	n/a	n/a	n/a	n/a	n/a	n/a	yellow
0.001	n/a	RESPONSE	n/a	n/a	n/a	n/a	n/a	n/a	n/a	red
0.001	n/a	RESPONSE	n/a	n/a	n/a	n/a	n/a	n/a	n/a	green
149.5355	n/a	RESPONSE	n/a	n/a	n/a	n/a	n/a	n/a	n/a	n/a
149.6009	1.0333	ITI	n/a	n/a	n/a	n/a	n/a	n/a	n/a	n/a
150.6342	0.5167	FIXCROSS	n/a	n/a	n/a	n/a	n/a	n/a	n/a	n/a
151.1509	3.7334	T_INK	1	Incongruent	zielony	green	żółty	yellow	incorrect	n/a
154.857	n/a	RESPONSE	n/a	n/a	n/a	n/a	n/a	n/a	n/a	green
154.8843	0.5167	FEEDBACK	n/a	n/a	n/a	n/a	n/a	n/a	n/a	n/a
155.4009	1.0167	ITI	n/a	n/a	n/a	n/a	n/a	n/a	n/a	n/a
156.4176	0.5167	FIXCROSS	n/a	n/a	n/a	n/a	n/a	n/a	n/a	n/a
156.9343	4.2667	T_INK	2	Incongruent	czerwony	red	zielony	green	hit	n/a
161.1692	n/a	RESPONSE	n/a	n/a	n/a	n/a	n/a	n/a	n/a	green
161.201	0.5167	FEEDBACK	n/a	n/a	n/a	n/a	n/a	n/a	n/a	n/a
161.7177	1.0167	ITI	n/a	n/a	n/a	n/a	n/a	n/a	n/a	n/a
162.7343	0.5167	FIXCROSS	n/a	n/a	n/a	n/a	n/a	n/a	n/a	n/a
163.251	2.1834	T_INK	3	Neutral	xxxxx	xxxxx	zielony	green	hit	n/a
165.404	n/a	RESPONSE	n/a	n/a	n/a	n/a	n/a	n/a	n/a	green
165.4344	0.5167	FEEDBACK	n/a	n/a	n/a	n/a	n/a	n/a	n/a	n/a
165.951	1.0167	ITI	n/a	n/a	n/a	n/a	n/a	n/a	n/a	n/a
166.9677	0.5167	FIXCROSS	n/a	n/a	n/a	n/a	n/a	n/a	n/a	n/a
167.4844	1.1833	T_INK	4	Incongruent	żółty	yellow	niebieski	blue	hit	n/a
168.632	n/a	RESPONSE	n/a	n/a	n/a	n/a	n/a	n/a	n/a	blue
168.6677	0.5167	FEEDBACK	n/a	n/a	n/a	n/a	n/a	n/a	n/a	n/a
169.1844	1.0167	ITI	n/a	n/a	n/a	n/a	n/a	n/a	n/a	n/a
170.2011	0.5167	FIXCROSS	n/a	n/a	n/a	n/a	n/a	n/a	n/a	n/a
170.7177	0.9833	T_INK	5	Incongruent	czerwony	red	niebieski	blue	hit	n/a
171.6682	n/a	RESPONSE	n/a	n/a	n/a	n/a	n/a	n/a	n/a	blue
171.7011	0.5167	FEEDBACK	n/a	n/a	n/a	n/a	n/a	n/a	n/a	n/a
172.2177	1.0167	ITI	n/a	n/a	n/a	n/a	n/a	n/a	n/a	n/a
173.2344	0.5167	FIXCROSS	n/a	n/a	n/a	n/a	n/a	n/a	n/a	n/a
173.7511	1.1333	T_INK	6	Incongruent	żółty	yellow	czerwony	red	hit	n/a
174.8643	n/a	RESPONSE	n/a	n/a	n/a	n/a	n/a	n/a	n/a	red
174.8844	0.5167	FEEDBACK	n/a	n/a	n/a	n/a	n/a	n/a	n/a	n/a
175.4011	1.0167	ITI	n/a	n/a	n/a	n/a	n/a	n/a	n/a	n/a
176.4178	0.5167	FIXCROSS	n/a	n/a	n/a	n/a	n/a	n/a	n/a	n/a
176.9344	0.8667	T_INK	7	Incongruent	niebieski	blue	zielony	green	hit	n/a
177.7727	n/a	RESPONSE	n/a	n/a	n/a	n/a	n/a	n/a	n/a	green
177.8011	0.5167	FEEDBACK	n/a	n/a	n/a	n/a	n/a	n/a	n/a	n/a
178.3178	1.0167	ITI	n/a	n/a	n/a	n/a	n/a	n/a	n/a	n/a
179.3345	0.5167	FIXCROSS	n/a	n/a	n/a	n/a	n/a	n/a	n/a	n/a
179.8511	1.1	T_INK	8	Neutral	xxxxxxx	xxxxxxx	żółty	yellow	hit	n/a
180.9208	n/a	RESPONSE	n/a	n/a	n/a	n/a	n/a	n/a	n/a	yellow
180.9511	0.5167	FEEDBACK	n/a	n/a	n/a	n/a	n/a	n/a	n/a	n/a
181.4678	1.0167	ITI	n/a	n/a	n/a	n/a	n/a	n/a	n/a	n/a
182.4845	0.5167	FIXCROSS	n/a	n/a	n/a	n/a	n/a	n/a	n/a	n/a
183.0012	0.75	T_INK	9	Neutral	xxxxxxxx	xxxxxxxx	zielony	green	hit	n/a
183.7174	n/a	RESPONSE	n/a	n/a	n/a	n/a	n/a	n/a	n/a	green
183.7512	0.5167	FEEDBACK	n/a	n/a	n/a	n/a	n/a	n/a	n/a	n/a
184.2678	1.0167	ITI	n/a	n/a	n/a	n/a	n/a	n/a	n/a	n/a
185.2845	0.5167	FIXCROSS	n/a	n/a	n/a	n/a	n/a	n/a	n/a	n/a
185.8012	0.75	T_INK	10	Neutral	xxxxxxx	xxxxxxx	niebieski	blue	hit	n/a
186.5299	n/a	RESPONSE	n/a	n/a	n/a	n/a	n/a	n/a	n/a	blue
186.5512	0.5167	FEEDBACK	n/a	n/a	n/a	n/a	n/a	n/a	n/a	n/a
187.0678	1.0167	ITI	n/a	n/a	n/a	n/a	n/a	n/a	n/a	n/a
188.0845	0.5167	FIXCROSS	n/a	n/a	n/a	n/a	n/a	n/a	n/a	n/a
188.6012	0.6667	T_INK	11	Neutral	xxxxxxxxx	xxxxxxxxx	zielony	green	hit	n/a
189.2465	n/a	RESPONSE	n/a	n/a	n/a	n/a	n/a	n/a	n/a	green
189.2679	0.5167	FEEDBACK	n/a	n/a	n/a	n/a	n/a	n/a	n/a	n/a
189.7845	1.0167	ITI	n/a	n/a	n/a	n/a	n/a	n/a	n/a	n/a
190.8012	0.5167	FIXCROSS	n/a	n/a	n/a	n/a	n/a	n/a	n/a	n/a
191.3179	0.8	T_INK	12	Incongruent	niebieski	blue	żółty	yellow	hit	n/a
192.0909	n/a	RESPONSE	n/a	n/a	n/a	n/a	n/a	n/a	n/a	yellow
192.1179	0.5167	FEEDBACK	n/a	n/a	n/a	n/a	n/a	n/a	n/a	n/a
192.6346	1.0333	ITI	n/a	n/a	n/a	n/a	n/a	n/a	n/a	n/a
197.0769	n/a	RESPONSE	n/a	n/a	n/a	n/a	n/a	n/a	n/a	n/a
197.1346	1.0167	ITI	n/a	n/a	n/a	n/a	n/a	n/a	n/a	n/a
198.1513	0.5167	FIXCROSS	n/a	n/a	n/a	n/a	n/a	n/a	n/a	n/a
198.6679	1.1333	INK	1	Incongruent	żółty	yellow	czerwony	red	hit	n/a
199.7775	n/a	RESPONSE	n/a	n/a	n/a	n/a	n/a	n/a	n/a	red
199.8013	1.0167	ITI	n/a	n/a	n/a	n/a	n/a	n/a	n/a	n/a
200.818	0.5167	FIXCROSS	n/a	n/a	n/a	n/a	n/a	n/a	n/a	n/a
201.3346	0.75	INK	2	Neutral	xxxxxxxxx	xxxxxxxxx	zielony	green	hit	n/a
202.0627	n/a	RESPONSE	n/a	n/a	n/a	n/a	n/a	n/a	n/a	green
202.0846	1.0167	ITI	n/a	n/a	n/a	n/a	n/a	n/a	n/a	n/a
203.1013	0.5167	FIXCROSS	n/a	n/a	n/a	n/a	n/a	n/a	n/a	n/a
203.618	0.6167	INK	3	Neutral	xxxxx	xxxxx	zielony	green	hit	n/a
204.2041	n/a	RESPONSE	n/a	n/a	n/a	n/a	n/a	n/a	n/a	green
204.2346	1.0167	ITI	n/a	n/a	n/a	n/a	n/a	n/a	n/a	n/a
205.2513	0.5167	FIXCROSS	n/a	n/a	n/a	n/a	n/a	n/a	n/a	n/a
205.768	0.85	INK	4	Neutral	xxxxxxxxx	xxxxxxxxx	czerwony	red	hit	n/a
206.5852	n/a	RESPONSE	n/a	n/a	n/a	n/a	n/a	n/a	n/a	red
206.618	1.0167	ITI	n/a	n/a	n/a	n/a	n/a	n/a	n/a	n/a
207.6347	0.5167	FIXCROSS	n/a	n/a	n/a	n/a	n/a	n/a	n/a	n/a
208.1514	0.7167	INK	5	Incongruent	czerwony	red	żółty	yellow	hit	n/a
208.8384	n/a	RESPONSE	n/a	n/a	n/a	n/a	n/a	n/a	n/a	yellow
208.868	1.0167	ITI	n/a	n/a	n/a	n/a	n/a	n/a	n/a	n/a
209.8847	0.5167	FIXCROSS	n/a	n/a	n/a	n/a	n/a	n/a	n/a	n/a
210.4014	0.85	INK	6	Incongruent	żółty	yellow	zielony	green	hit	n/a
211.2195	n/a	RESPONSE	n/a	n/a	n/a	n/a	n/a	n/a	n/a	green
211.2514	1.0167	ITI	n/a	n/a	n/a	n/a	n/a	n/a	n/a	n/a
212.2681	0.5167	FIXCROSS	n/a	n/a	n/a	n/a	n/a	n/a	n/a	n/a
212.7847	0.7833	INK	7	Incongruent	żółty	yellow	czerwony	red	hit	n/a
213.5366	n/a	RESPONSE	n/a	n/a	n/a	n/a	n/a	n/a	n/a	red
213.5681	1.0167	ITI	n/a	n/a	n/a	n/a	n/a	n/a	n/a	n/a
214.5847	0.5167	FIXCROSS	n/a	n/a	n/a	n/a	n/a	n/a	n/a	n/a
215.1014	1.0	INK	8	Incongruent	czerwony	red	żółty	yellow	hit	n/a
216.0776	n/a	RESPONSE	n/a	n/a	n/a	n/a	n/a	n/a	n/a	yellow
216.1014	1.0167	ITI	n/a	n/a	n/a	n/a	n/a	n/a	n/a	n/a
217.1181	0.5167	FIXCROSS	n/a	n/a	n/a	n/a	n/a	n/a	n/a	n/a
217.6348	0.5833	INK	9	Incongruent	zielony	green	niebieski	blue	hit	n/a
218.1869	n/a	RESPONSE	n/a	n/a	n/a	n/a	n/a	n/a	n/a	blue
218.2181	1.0167	ITI	n/a	n/a	n/a	n/a	n/a	n/a	n/a	n/a
219.2348	0.5167	FIXCROSS	n/a	n/a	n/a	n/a	n/a	n/a	n/a	n/a
219.7515	0.6167	INK	10	Neutral	xxxxxxxx	xxxxxxxx	zielony	green	hit	n/a
220.3443	n/a	RESPONSE	n/a	n/a	n/a	n/a	n/a	n/a	n/a	green
220.3681	1.0167	ITI	n/a	n/a	n/a	n/a	n/a	n/a	n/a	n/a
221.3848	0.5167	FIXCROSS	n/a	n/a	n/a	n/a	n/a	n/a	n/a	n/a
221.9015	0.6333	INK	11	Neutral	xxxxxxxx	xxxxxxxx	zielony	green	hit	n/a
222.5016	n/a	RESPONSE	n/a	n/a	n/a	n/a	n/a	n/a	n/a	green
222.5348	1.0167	ITI	n/a	n/a	n/a	n/a	n/a	n/a	n/a	n/a
223.5515	0.5167	FIXCROSS	n/a	n/a	n/a	n/a	n/a	n/a	n/a	n/a
224.0682	0.7667	INK	12	Neutral	xxxxxxxx	xxxxxxxx	żółty	yellow	hit	n/a
224.8027	n/a	RESPONSE	n/a	n/a	n/a	n/a	n/a	n/a	n/a	yellow
224.8348	1.0167	ITI	n/a	n/a	n/a	n/a	n/a	n/a	n/a	n/a
225.8515	0.5104	FIXCROSS	n/a	n/a	n/a	n/a	n/a	n/a	n/a	n/a
226.3619	0.7729	INK	13	Incongruent	czerwony	red	niebieski	blue	hit	n/a
227.1039	n/a	RESPONSE	n/a	n/a	n/a	n/a	n/a	n/a	n/a	blue
227.1348	1.0167	ITI	n/a	n/a	n/a	n/a	n/a	n/a	n/a	n/a
228.1515	0.5167	FIXCROSS	n/a	n/a	n/a	n/a	n/a	n/a	n/a	n/a
228.6682	0.75	INK	14	Incongruent	zielony	green	żółty	yellow	hit	n/a
229.389	n/a	RESPONSE	n/a	n/a	n/a	n/a	n/a	n/a	n/a	yellow
229.4182	1.0167	ITI	n/a	n/a	n/a	n/a	n/a	n/a	n/a	n/a
230.4349	0.5167	FIXCROSS	n/a	n/a	n/a	n/a	n/a	n/a	n/a	n/a
230.9515	0.8167	INK	15	Neutral	xxxxxxxxx	xxxxxxxxx	czerwony	red	hit	n/a
231.7382	n/a	RESPONSE	n/a	n/a	n/a	n/a	n/a	n/a	n/a	red
231.7682	1.0167	ITI	n/a	n/a	n/a	n/a	n/a	n/a	n/a	n/a
232.7849	0.5167	FIXCROSS	n/a	n/a	n/a	n/a	n/a	n/a	n/a	n/a
233.3016	0.6333	INK	16	Incongruent	czerwony	red	zielony	green	hit	n/a
233.9115	n/a	RESPONSE	n/a	n/a	n/a	n/a	n/a	n/a	n/a	green
233.9349	1.0167	ITI	n/a	n/a	n/a	n/a	n/a	n/a	n/a	n/a
234.9516	0.5167	FIXCROSS	n/a	n/a	n/a	n/a	n/a	n/a	n/a	n/a
235.4682	0.7334	INK	17	Neutral	xxxxxxxxx	xxxxxxxxx	zielony	green	hit	n/a
236.1807	n/a	RESPONSE	n/a	n/a	n/a	n/a	n/a	n/a	n/a	green
236.2016	1.0167	ITI	n/a	n/a	n/a	n/a	n/a	n/a	n/a	n/a
237.2182	0.5167	FIXCROSS	n/a	n/a	n/a	n/a	n/a	n/a	n/a	n/a
237.7349	0.7833	INK	18	Neutral	xxxxxxx	xxxxxxx	czerwony	red	hit	n/a
238.4978	n/a	RESPONSE	n/a	n/a	n/a	n/a	n/a	n/a	n/a	red
238.5183	1.0167	ITI	n/a	n/a	n/a	n/a	n/a	n/a	n/a	n/a
239.5349	0.5167	FIXCROSS	n/a	n/a	n/a	n/a	n/a	n/a	n/a	n/a
240.0516	0.7667	INK	19	Neutral	xxxxx	xxxxx	zielony	green	hit	n/a
240.7989	n/a	RESPONSE	n/a	n/a	n/a	n/a	n/a	n/a	n/a	green
240.8183	1.0167	ITI	n/a	n/a	n/a	n/a	n/a	n/a	n/a	n/a
241.835	0.5167	FIXCROSS	n/a	n/a	n/a	n/a	n/a	n/a	n/a	n/a
242.3516	0.7833	INK	20	Incongruent	niebieski	blue	czerwony	red	hit	n/a
243.116	n/a	RESPONSE	n/a	n/a	n/a	n/a	n/a	n/a	n/a	red
243.135	1.0167	ITI	n/a	n/a	n/a	n/a	n/a	n/a	n/a	n/a
244.1516	0.5167	FIXCROSS	n/a	n/a	n/a	n/a	n/a	n/a	n/a	n/a
244.6683	0.8	INK	21	Incongruent	niebieski	blue	zielony	green	hit	n/a
245.4493	n/a	RESPONSE	n/a	n/a	n/a	n/a	n/a	n/a	n/a	green
245.4683	1.0167	ITI	n/a	n/a	n/a	n/a	n/a	n/a	n/a	n/a
246.485	0.5167	FIXCROSS	n/a	n/a	n/a	n/a	n/a	n/a	n/a	n/a
247.0017	0.95	INK	22	Neutral	xxxxxxx	xxxxxxx	czerwony	red	hit	n/a
247.9262	n/a	RESPONSE	n/a	n/a	n/a	n/a	n/a	n/a	n/a	red
247.9517	1.0167	ITI	n/a	n/a	n/a	n/a	n/a	n/a	n/a	n/a
248.9683	0.5167	FIXCROSS	n/a	n/a	n/a	n/a	n/a	n/a	n/a	n/a
249.485	0.75	INK	23	Neutral	xxxxxxxx	xxxxxxxx	niebieski	blue	hit	n/a
250.2113	n/a	RESPONSE	n/a	n/a	n/a	n/a	n/a	n/a	n/a	blue
250.235	1.0167	ITI	n/a	n/a	n/a	n/a	n/a	n/a	n/a	n/a
251.2517	0.5167	FIXCROSS	n/a	n/a	n/a	n/a	n/a	n/a	n/a	n/a
251.7684	1.0833	INK	24	Neutral	xxxxxxxxx	xxxxxxxxx	żółty	yellow	hit	n/a
252.8322	n/a	RESPONSE	n/a	n/a	n/a	n/a	n/a	n/a	n/a	yellow
252.8517	1.0167	ITI	n/a	n/a	n/a	n/a	n/a	n/a	n/a	n/a
253.8684	0.5167	FIXCROSS	n/a	n/a	n/a	n/a	n/a	n/a	n/a	n/a
254.3851	1.1333	INK	25	Neutral	xxxxxxx	xxxxxxx	niebieski	blue	hit	n/a
255.5009	n/a	RESPONSE	n/a	n/a	n/a	n/a	n/a	n/a	n/a	blue
255.5184	1.0167	ITI	n/a	n/a	n/a	n/a	n/a	n/a	n/a	n/a
256.5351	0.5167	FIXCROSS	n/a	n/a	n/a	n/a	n/a	n/a	n/a	n/a
257.0517	0.8833	INK	26	Incongruent	niebieski	blue	czerwony	red	hit	n/a
257.9139	n/a	RESPONSE	n/a	n/a	n/a	n/a	n/a	n/a	n/a	red
257.9351	1.0167	ITI	n/a	n/a	n/a	n/a	n/a	n/a	n/a	n/a
258.9517	0.5167	FIXCROSS	n/a	n/a	n/a	n/a	n/a	n/a	n/a	n/a
259.4684	1.0167	INK	27	Neutral	xxxxxxx	xxxxxxx	żółty	yellow	hit	n/a
260.4548	n/a	RESPONSE	n/a	n/a	n/a	n/a	n/a	n/a	n/a	yellow
260.4851	1.0167	ITI	n/a	n/a	n/a	n/a	n/a	n/a	n/a	n/a
261.5018	0.5167	FIXCROSS	n/a	n/a	n/a	n/a	n/a	n/a	n/a	n/a
262.0184	0.6334	INK	28	Neutral	xxxxx	xxxxx	niebieski	blue	hit	n/a
262.6281	n/a	RESPONSE	n/a	n/a	n/a	n/a	n/a	n/a	n/a	blue
262.6518	1.0167	ITI	n/a	n/a	n/a	n/a	n/a	n/a	n/a	n/a
263.6685	0.5167	FIXCROSS	n/a	n/a	n/a	n/a	n/a	n/a	n/a	n/a
264.1851	0.6667	INK	29	Neutral	xxxxxxxx	xxxxxxxx	niebieski	blue	hit	n/a
264.8335	n/a	RESPONSE	n/a	n/a	n/a	n/a	n/a	n/a	n/a	blue
264.8518	1.0167	ITI	n/a	n/a	n/a	n/a	n/a	n/a	n/a	n/a
265.8685	0.5167	FIXCROSS	n/a	n/a	n/a	n/a	n/a	n/a	n/a	n/a
266.3851	0.85	INK	30	Incongruent	zielony	green	czerwony	red	hit	n/a
267.2145	n/a	RESPONSE	n/a	n/a	n/a	n/a	n/a	n/a	n/a	red
267.2351	1.0167	ITI	n/a	n/a	n/a	n/a	n/a	n/a	n/a	n/a
268.2518	0.5167	FIXCROSS	n/a	n/a	n/a	n/a	n/a	n/a	n/a	n/a
268.7685	0.65	INK	31	Neutral	xxxxxxx	xxxxxxx	żółty	yellow	hit	n/a
269.3879	n/a	RESPONSE	n/a	n/a	n/a	n/a	n/a	n/a	n/a	yellow
269.4185	1.0167	ITI	n/a	n/a	n/a	n/a	n/a	n/a	n/a	n/a
270.4352	0.5167	FIXCROSS	n/a	n/a	n/a	n/a	n/a	n/a	n/a	n/a
270.9519	0.9833	INK	32	Incongruent	czerwony	red	żółty	yellow	hit	n/a
271.9127	n/a	RESPONSE	n/a	n/a	n/a	n/a	n/a	n/a	n/a	yellow
271.9352	1.0167	ITI	n/a	n/a	n/a	n/a	n/a	n/a	n/a	n/a
272.9519	0.5167	FIXCROSS	n/a	n/a	n/a	n/a	n/a	n/a	n/a	n/a
273.4685	0.8334	INK	33	Neutral	xxxxx	xxxxx	czerwony	red	hit	n/a
274.2778	n/a	RESPONSE	n/a	n/a	n/a	n/a	n/a	n/a	n/a	red
274.3019	1.0167	ITI	n/a	n/a	n/a	n/a	n/a	n/a	n/a	n/a
275.3185	0.5167	FIXCROSS	n/a	n/a	n/a	n/a	n/a	n/a	n/a	n/a
275.8352	0.75	INK	34	Neutral	xxxxx	xxxxx	zielony	green	hit	n/a
276.563	n/a	RESPONSE	n/a	n/a	n/a	n/a	n/a	n/a	n/a	green
276.5852	1.0167	ITI	n/a	n/a	n/a	n/a	n/a	n/a	n/a	n/a
277.6019	0.5167	FIXCROSS	n/a	n/a	n/a	n/a	n/a	n/a	n/a	n/a
278.1186	0.5667	INK	35	Incongruent	zielony	green	niebieski	blue	hit	n/a
278.6565	n/a	RESPONSE	n/a	n/a	n/a	n/a	n/a	n/a	n/a	blue
278.6852	1.0167	ITI	n/a	n/a	n/a	n/a	n/a	n/a	n/a	n/a
279.7019	0.5167	FIXCROSS	n/a	n/a	n/a	n/a	n/a	n/a	n/a	n/a
280.2186	0.5833	INK	36	Neutral	xxxxx	xxxxx	niebieski	blue	hit	n/a
280.7818	n/a	RESPONSE	n/a	n/a	n/a	n/a	n/a	n/a	n/a	blue
280.8019	1.0167	ITI	n/a	n/a	n/a	n/a	n/a	n/a	n/a	n/a
281.8186	0.5167	FIXCROSS	n/a	n/a	n/a	n/a	n/a	n/a	n/a	n/a
282.3353	0.7833	INK	37	Incongruent	zielony	green	żółty	yellow	hit	n/a
283.099	n/a	RESPONSE	n/a	n/a	n/a	n/a	n/a	n/a	n/a	yellow
283.1186	1.0167	ITI	n/a	n/a	n/a	n/a	n/a	n/a	n/a	n/a
284.1353	0.5167	FIXCROSS	n/a	n/a	n/a	n/a	n/a	n/a	n/a	n/a
284.652	0.5	INK	38	Neutral	xxxxxxxxx	xxxxxxxxx	żółty	yellow	hit	n/a
285.1286	n/a	RESPONSE	n/a	n/a	n/a	n/a	n/a	n/a	n/a	yellow
285.152	1.0167	ITI	n/a	n/a	n/a	n/a	n/a	n/a	n/a	n/a
286.1686	0.5167	FIXCROSS	n/a	n/a	n/a	n/a	n/a	n/a	n/a	n/a
286.6853	0.4333	INK	39	Neutral	xxxxxxxx	xxxxxxxx	żółty	yellow	hit	n/a
287.094	n/a	RESPONSE	n/a	n/a	n/a	n/a	n/a	n/a	n/a	yellow
287.1186	1.0167	ITI	n/a	n/a	n/a	n/a	n/a	n/a	n/a	n/a
288.1353	0.5167	FIXCROSS	n/a	n/a	n/a	n/a	n/a	n/a	n/a	n/a
288.652	0.6	INK	40	Neutral	xxxxxxxxx	xxxxxxxxx	żółty	yellow	hit	n/a
289.2195	n/a	RESPONSE	n/a	n/a	n/a	n/a	n/a	n/a	n/a	yellow
289.252	1.0167	ITI	n/a	n/a	n/a	n/a	n/a	n/a	n/a	n/a
290.2687	0.5167	FIXCROSS	n/a	n/a	n/a	n/a	n/a	n/a	n/a	n/a
290.7853	0.8	INK	41	Neutral	xxxxx	xxxxx	czerwony	red	hit	n/a
291.5526	n/a	RESPONSE	n/a	n/a	n/a	n/a	n/a	n/a	n/a	red
291.5853	1.0167	ITI	n/a	n/a	n/a	n/a	n/a	n/a	n/a	n/a
292.602	0.5167	FIXCROSS	n/a	n/a	n/a	n/a	n/a	n/a	n/a	n/a
293.1187	0.7167	INK	42	Incongruent	czerwony	red	niebieski	blue	hit	n/a
293.8058	n/a	RESPONSE	n/a	n/a	n/a	n/a	n/a	n/a	n/a	blue
293.8354	1.0167	ITI	n/a	n/a	n/a	n/a	n/a	n/a	n/a	n/a
294.852	0.5167	FIXCROSS	n/a	n/a	n/a	n/a	n/a	n/a	n/a	n/a
295.3687	0.8167	INK	43	Neutral	xxxxx	xxxxx	czerwony	red	hit	n/a
296.1549	n/a	RESPONSE	n/a	n/a	n/a	n/a	n/a	n/a	n/a	red
296.1854	1.0167	ITI	n/a	n/a	n/a	n/a	n/a	n/a	n/a	n/a
297.2021	0.5167	FIXCROSS	n/a	n/a	n/a	n/a	n/a	n/a	n/a	n/a
297.7187	0.6167	INK	44	Neutral	xxxxxxx	xxxxxxx	niebieski	blue	hit	n/a
298.3123	n/a	RESPONSE	n/a	n/a	n/a	n/a	n/a	n/a	n/a	blue
298.3354	1.0167	ITI	n/a	n/a	n/a	n/a	n/a	n/a	n/a	n/a
299.3521	0.5167	FIXCROSS	n/a	n/a	n/a	n/a	n/a	n/a	n/a	n/a
299.8687	0.65	INK	45	Neutral	xxxxxxxx	xxxxxxxx	zielony	green	hit	n/a
300.4856	n/a	RESPONSE	n/a	n/a	n/a	n/a	n/a	n/a	n/a	green
300.5187	1.0167	ITI	n/a	n/a	n/a	n/a	n/a	n/a	n/a	n/a
301.5354	0.5167	FIXCROSS	n/a	n/a	n/a	n/a	n/a	n/a	n/a	n/a
302.0521	0.4833	INK	46	Incongruent	żółty	yellow	niebieski	blue	hit	n/a
302.5152	n/a	RESPONSE	n/a	n/a	n/a	n/a	n/a	n/a	n/a	blue
302.5354	1.0167	ITI	n/a	n/a	n/a	n/a	n/a	n/a	n/a	n/a
303.5521	0.5167	FIXCROSS	n/a	n/a	n/a	n/a	n/a	n/a	n/a	n/a
304.0688	0.75	INK	47	Neutral	xxxxxxxxx	xxxxxxxxx	czerwony	red	hit	n/a
304.8003	n/a	RESPONSE	n/a	n/a	n/a	n/a	n/a	n/a	n/a	red
304.8188	1.0167	ITI	n/a	n/a	n/a	n/a	n/a	n/a	n/a	n/a
305.8355	0.5167	FIXCROSS	n/a	n/a	n/a	n/a	n/a	n/a	n/a	n/a
306.3521	0.6167	INK	48	Incongruent	niebieski	blue	czerwony	red	hit	n/a
306.9417	n/a	RESPONSE	n/a	n/a	n/a	n/a	n/a	n/a	n/a	red
306.9688	1.0167	ITI	n/a	n/a	n/a	n/a	n/a	n/a	n/a	n/a
307.9855	0.5167	FIXCROSS	n/a	n/a	n/a	n/a	n/a	n/a	n/a	n/a
308.5021	1.05	INK	49	Incongruent	niebieski	blue	zielony	green	hit	n/a
309.5305	n/a	RESPONSE	n/a	n/a	n/a	n/a	n/a	n/a	n/a	green
309.5522	1.0167	ITI	n/a	n/a	n/a	n/a	n/a	n/a	n/a	n/a
310.5688	0.5167	FIXCROSS	n/a	n/a	n/a	n/a	n/a	n/a	n/a	n/a
311.0855	0.6333	INK	50	Neutral	xxxxxxx	xxxxxxx	żółty	yellow	hit	n/a
311.6878	n/a	RESPONSE	n/a	n/a	n/a	n/a	n/a	n/a	n/a	yellow
311.7188	1.0167	ITI	n/a	n/a	n/a	n/a	n/a	n/a	n/a	n/a
312.7355	0.5167	FIXCROSS	n/a	n/a	n/a	n/a	n/a	n/a	n/a	n/a
313.2522	0.6833	INK	51	Incongruent	czerwony	red	niebieski	blue	hit	n/a
313.9092	n/a	RESPONSE	n/a	n/a	n/a	n/a	n/a	n/a	n/a	blue
313.9355	1.0167	ITI	n/a	n/a	n/a	n/a	n/a	n/a	n/a	n/a
314.9522	0.5167	FIXCROSS	n/a	n/a	n/a	n/a	n/a	n/a	n/a	n/a
315.4689	0.5	INK	52	Incongruent	zielony	green	żółty	yellow	hit	n/a
315.9387	n/a	RESPONSE	n/a	n/a	n/a	n/a	n/a	n/a	n/a	yellow
315.9689	1.0167	ITI	n/a	n/a	n/a	n/a	n/a	n/a	n/a	n/a
316.9855	0.5167	FIXCROSS	n/a	n/a	n/a	n/a	n/a	n/a	n/a	n/a
317.5022	0.7333	INK	53	Incongruent	żółty	yellow	niebieski	blue	hit	n/a
318.2079	n/a	RESPONSE	n/a	n/a	n/a	n/a	n/a	n/a	n/a	blue
318.2356	1.0166	ITI	n/a	n/a	n/a	n/a	n/a	n/a	n/a	n/a
319.2522	0.5167	FIXCROSS	n/a	n/a	n/a	n/a	n/a	n/a	n/a	n/a
319.7689	1.4334	INK	54	Incongruent	czerwony	red	zielony	green	hit	n/a
321.1803	n/a	RESPONSE	n/a	n/a	n/a	n/a	n/a	n/a	n/a	green
321.2022	1.0167	ITI	n/a	n/a	n/a	n/a	n/a	n/a	n/a	n/a
322.2189	0.5167	FIXCROSS	n/a	n/a	n/a	n/a	n/a	n/a	n/a	n/a
322.7356	0.6667	INK	55	Incongruent	niebieski	blue	żółty	yellow	hit	n/a
323.3695	n/a	RESPONSE	n/a	n/a	n/a	n/a	n/a	n/a	n/a	yellow
323.4023	1.0167	ITI	n/a	n/a	n/a	n/a	n/a	n/a	n/a	n/a
324.4189	0.5167	FIXCROSS	n/a	n/a	n/a	n/a	n/a	n/a	n/a	n/a
324.9356	0.75	INK	56	Neutral	xxxxx	xxxxx	niebieski	blue	hit	n/a
325.6547	n/a	RESPONSE	n/a	n/a	n/a	n/a	n/a	n/a	n/a	blue
325.6856	1.0167	ITI	n/a	n/a	n/a	n/a	n/a	n/a	n/a	n/a
326.7023	0.5167	FIXCROSS	n/a	n/a	n/a	n/a	n/a	n/a	n/a	n/a
327.219	0.55	INK	57	Neutral	xxxxxxx	xxxxxxx	niebieski	blue	hit	n/a
327.7482	n/a	RESPONSE	n/a	n/a	n/a	n/a	n/a	n/a	n/a	blue
327.769	1.0167	ITI	n/a	n/a	n/a	n/a	n/a	n/a	n/a	n/a
328.7856	0.5167	FIXCROSS	n/a	n/a	n/a	n/a	n/a	n/a	n/a	n/a
329.3023	0.5333	INK	58	Neutral	xxxxxxxx	xxxxxxxx	żółty	yellow	hit	n/a
329.8097	n/a	RESPONSE	n/a	n/a	n/a	n/a	n/a	n/a	n/a	yellow
329.8356	1.0167	ITI	n/a	n/a	n/a	n/a	n/a	n/a	n/a	n/a
330.8523	0.5167	FIXCROSS	n/a	n/a	n/a	n/a	n/a	n/a	n/a	n/a
331.369	0.4167	INK	59	Incongruent	niebieski	blue	żółty	yellow	hit	n/a
331.7593	n/a	RESPONSE	n/a	n/a	n/a	n/a	n/a	n/a	n/a	yellow
331.7856	1.0167	ITI	n/a	n/a	n/a	n/a	n/a	n/a	n/a	n/a
332.8023	0.5167	FIXCROSS	n/a	n/a	n/a	n/a	n/a	n/a	n/a	n/a
333.319	0.8833	INK	60	Incongruent	niebieski	blue	zielony	green	hit	n/a
334.1723	n/a	RESPONSE	n/a	n/a	n/a	n/a	n/a	n/a	n/a	green
334.2023	1.0167	ITI	n/a	n/a	n/a	n/a	n/a	n/a	n/a	n/a
335.219	0.5167	FIXCROSS	n/a	n/a	n/a	n/a	n/a	n/a	n/a	n/a
335.7357	0.6667	INK	61	Incongruent	zielony	green	czerwony	red	hit	n/a
336.3776	n/a	RESPONSE	n/a	n/a	n/a	n/a	n/a	n/a	n/a	red
336.4024	1.0167	ITI	n/a	n/a	n/a	n/a	n/a	n/a	n/a	n/a
337.419	0.5167	FIXCROSS	n/a	n/a	n/a	n/a	n/a	n/a	n/a	n/a
337.9357	0.7333	INK	62	Incongruent	żółty	yellow	zielony	green	hit	n/a
338.6468	n/a	RESPONSE	n/a	n/a	n/a	n/a	n/a	n/a	n/a	green
338.669	1.0167	ITI	n/a	n/a	n/a	n/a	n/a	n/a	n/a	n/a
339.6857	0.5167	FIXCROSS	n/a	n/a	n/a	n/a	n/a	n/a	n/a	n/a
340.2024	0.8333	INK	63	Incongruent	niebieski	blue	żółty	yellow	hit	n/a
341.0119	n/a	RESPONSE	n/a	n/a	n/a	n/a	n/a	n/a	n/a	yellow
341.0357	1.0167	ITI	n/a	n/a	n/a	n/a	n/a	n/a	n/a	n/a
342.0524	0.5167	FIXCROSS	n/a	n/a	n/a	n/a	n/a	n/a	n/a	n/a
342.5691	0.6833	INK	64	Neutral	xxxxxxx	xxxxxxx	czerwony	red	hit	n/a
343.2172	n/a	RESPONSE	n/a	n/a	n/a	n/a	n/a	n/a	n/a	red
343.2524	1.0167	ITI	n/a	n/a	n/a	n/a	n/a	n/a	n/a	n/a
344.2691	0.5167	FIXCROSS	n/a	n/a	n/a	n/a	n/a	n/a	n/a	n/a
344.7858	0.5333	INK	65	Incongruent	żółty	yellow	niebieski	blue	hit	n/a
345.2946	n/a	RESPONSE	n/a	n/a	n/a	n/a	n/a	n/a	n/a	blue
345.3191	1.0167	ITI	n/a	n/a	n/a	n/a	n/a	n/a	n/a	n/a
346.3358	0.5167	FIXCROSS	n/a	n/a	n/a	n/a	n/a	n/a	n/a	n/a
346.8524	0.7667	INK	66	Neutral	xxxxxxxxx	xxxxxxxxx	zielony	green	hit	n/a
347.5957	n/a	RESPONSE	n/a	n/a	n/a	n/a	n/a	n/a	n/a	green
347.6191	1.0167	ITI	n/a	n/a	n/a	n/a	n/a	n/a	n/a	n/a
348.6358	0.5167	FIXCROSS	n/a	n/a	n/a	n/a	n/a	n/a	n/a	n/a
349.1525	0.8667	INK	67	Incongruent	czerwony	red	zielony	green	hit	n/a
349.9928	n/a	RESPONSE	n/a	n/a	n/a	n/a	n/a	n/a	n/a	green
350.0191	1.0167	ITI	n/a	n/a	n/a	n/a	n/a	n/a	n/a	n/a
351.0358	0.5167	FIXCROSS	n/a	n/a	n/a	n/a	n/a	n/a	n/a	n/a
351.5525	0.7	INK	68	Incongruent	zielony	green	czerwony	red	hit	n/a
352.2301	n/a	RESPONSE	n/a	n/a	n/a	n/a	n/a	n/a	n/a	red
352.2525	1.0167	ITI	n/a	n/a	n/a	n/a	n/a	n/a	n/a	n/a
353.2692	0.5167	FIXCROSS	n/a	n/a	n/a	n/a	n/a	n/a	n/a	n/a
353.7858	0.5	INK	69	Incongruent	żółty	yellow	czerwony	red	hit	n/a
354.2595	n/a	RESPONSE	n/a	n/a	n/a	n/a	n/a	n/a	n/a	red
354.2858	1.0167	ITI	n/a	n/a	n/a	n/a	n/a	n/a	n/a	n/a
355.3025	0.5167	FIXCROSS	n/a	n/a	n/a	n/a	n/a	n/a	n/a	n/a
355.8192	0.5833	INK	70	Incongruent	żółty	yellow	zielony	green	hit	n/a
356.3849	n/a	RESPONSE	n/a	n/a	n/a	n/a	n/a	n/a	n/a	green
356.4025	1.0167	ITI	n/a	n/a	n/a	n/a	n/a	n/a	n/a	n/a
357.4192	0.5167	FIXCROSS	n/a	n/a	n/a	n/a	n/a	n/a	n/a	n/a
357.9359	0.7833	INK	71	Incongruent	zielony	green	niebieski	blue	hit	n/a
358.686	n/a	RESPONSE	n/a	n/a	n/a	n/a	n/a	n/a	n/a	blue
358.7192	1.0167	ITI	n/a	n/a	n/a	n/a	n/a	n/a	n/a	n/a
359.7359	0.5167	FIXCROSS	n/a	n/a	n/a	n/a	n/a	n/a	n/a	n/a
360.2525	0.65	INK	72	Neutral	xxxxxxxx	xxxxxxxx	niebieski	blue	hit	n/a
360.8753	n/a	RESPONSE	n/a	n/a	n/a	n/a	n/a	n/a	n/a	blue
360.9025	1.0833	ITI	n/a	n/a	n/a	n/a	n/a	n/a	n/a	n/a
417.2534	n/a	RESPONSE	n/a	n/a	n/a	n/a	n/a	n/a	n/a	n/a
417.3196	1.0167	ITI	n/a	n/a	n/a	n/a	n/a	n/a	n/a	n/a
418.3363	0.5167	FIXCROSS	n/a	n/a	n/a	n/a	n/a	n/a	n/a	n/a
418.853	1.0	T_COLOR_NAME	1	Incongruent	zielony	green	żółty	yellow	hit	n/a
419.8263	n/a	RESPONSE	n/a	n/a	n/a	n/a	n/a	n/a	n/a	green
419.853	0.5167	FEEDBACK	n/a	n/a	n/a	n/a	n/a	n/a	n/a	n/a
420.3697	1.0167	ITI	n/a	n/a	n/a	n/a	n/a	n/a	n/a	n/a
421.3863	0.5166	FIXCROSS	n/a	n/a	n/a	n/a	n/a	n/a	n/a	n/a
421.903	0.9167	T_COLOR_NAME	2	Neutral	niebieski	blue	Neutral	Neutral	hit	n/a
422.7988	n/a	RESPONSE	n/a	n/a	n/a	n/a	n/a	n/a	n/a	blue
422.8197	0.5167	FEEDBACK	n/a	n/a	n/a	n/a	n/a	n/a	n/a	n/a
423.3363	1.0167	ITI	n/a	n/a	n/a	n/a	n/a	n/a	n/a	n/a
424.353	0.5167	FIXCROSS	n/a	n/a	n/a	n/a	n/a	n/a	n/a	n/a
424.8697	0.9167	T_COLOR_NAME	3	Incongruent	niebieski	blue	żółty	yellow	hit	n/a
425.7551	n/a	RESPONSE	n/a	n/a	n/a	n/a	n/a	n/a	n/a	blue
425.7864	0.5167	FEEDBACK	n/a	n/a	n/a	n/a	n/a	n/a	n/a	n/a
426.303	1.0167	ITI	n/a	n/a	n/a	n/a	n/a	n/a	n/a	n/a
427.3197	0.5167	FIXCROSS	n/a	n/a	n/a	n/a	n/a	n/a	n/a	n/a
427.8364	1.1834	T_COLOR_NAME	4	Incongruent	żółty	yellow	niebieski	blue	hit	n/a
428.9831	n/a	RESPONSE	n/a	n/a	n/a	n/a	n/a	n/a	n/a	yellow
429.0197	0.5167	FEEDBACK	n/a	n/a	n/a	n/a	n/a	n/a	n/a	n/a
429.5364	1.0167	ITI	n/a	n/a	n/a	n/a	n/a	n/a	n/a	n/a
430.5531	0.5166	FIXCROSS	n/a	n/a	n/a	n/a	n/a	n/a	n/a	n/a
431.0697	0.85	T_COLOR_NAME	5	Incongruent	czerwony	red	niebieski	blue	hit	n/a
431.8915	n/a	RESPONSE	n/a	n/a	n/a	n/a	n/a	n/a	n/a	red
431.9197	0.5167	FEEDBACK	n/a	n/a	n/a	n/a	n/a	n/a	n/a	n/a
432.4364	1.0167	ITI	n/a	n/a	n/a	n/a	n/a	n/a	n/a	n/a
433.4531	0.5167	FIXCROSS	n/a	n/a	n/a	n/a	n/a	n/a	n/a	n/a
433.9698	1.0833	T_COLOR_NAME	6	Incongruent	czerwony	red	zielony	green	hit	n/a
435.0236	n/a	RESPONSE	n/a	n/a	n/a	n/a	n/a	n/a	n/a	red
435.0531	0.5167	FEEDBACK	n/a	n/a	n/a	n/a	n/a	n/a	n/a	n/a
435.5698	1.0167	ITI	n/a	n/a	n/a	n/a	n/a	n/a	n/a	n/a
436.5865	0.5167	FIXCROSS	n/a	n/a	n/a	n/a	n/a	n/a	n/a	n/a
437.1031	1.0833	T_COLOR_NAME	7	Neutral	żółty	yellow	Neutral	Neutral	hit	n/a
438.1558	n/a	RESPONSE	n/a	n/a	n/a	n/a	n/a	n/a	n/a	yellow
438.1865	0.5167	FEEDBACK	n/a	n/a	n/a	n/a	n/a	n/a	n/a	n/a
438.7031	1.0167	ITI	n/a	n/a	n/a	n/a	n/a	n/a	n/a	n/a
439.7198	0.5167	FIXCROSS	n/a	n/a	n/a	n/a	n/a	n/a	n/a	n/a
440.2365	0.85	T_COLOR_NAME	8	Incongruent	niebieski	blue	zielony	green	hit	n/a
441.0642	n/a	RESPONSE	n/a	n/a	n/a	n/a	n/a	n/a	n/a	blue
441.0865	0.5167	FEEDBACK	n/a	n/a	n/a	n/a	n/a	n/a	n/a	n/a
441.6032	1.0167	ITI	n/a	n/a	n/a	n/a	n/a	n/a	n/a	n/a
442.6198	0.5167	FIXCROSS	n/a	n/a	n/a	n/a	n/a	n/a	n/a	n/a
443.1365	0.7667	T_COLOR_NAME	9	Neutral	zielony	green	Neutral	Neutral	hit	n/a
443.8767	n/a	RESPONSE	n/a	n/a	n/a	n/a	n/a	n/a	n/a	green
443.9032	0.5167	FEEDBACK	n/a	n/a	n/a	n/a	n/a	n/a	n/a	n/a
444.4198	1.0167	ITI	n/a	n/a	n/a	n/a	n/a	n/a	n/a	n/a
445.4365	0.5167	FIXCROSS	n/a	n/a	n/a	n/a	n/a	n/a	n/a	n/a
445.9532	0.8833	T_COLOR_NAME	10	Neutral	czerwony	red	Neutral	Neutral	hit	n/a
446.8171	n/a	RESPONSE	n/a	n/a	n/a	n/a	n/a	n/a	n/a	red
446.8365	0.5167	FEEDBACK	n/a	n/a	n/a	n/a	n/a	n/a	n/a	n/a
447.3532	1.0167	ITI	n/a	n/a	n/a	n/a	n/a	n/a	n/a	n/a
448.3699	0.5167	FIXCROSS	n/a	n/a	n/a	n/a	n/a	n/a	n/a	n/a
448.8865	1.1167	T_COLOR_NAME	11	Incongruent	żółty	yellow	czerwony	red	hit	n/a
449.9812	n/a	RESPONSE	n/a	n/a	n/a	n/a	n/a	n/a	n/a	yellow
450.0032	0.5167	FEEDBACK	n/a	n/a	n/a	n/a	n/a	n/a	n/a	n/a
450.5199	1.0167	ITI	n/a	n/a	n/a	n/a	n/a	n/a	n/a	n/a
451.5366	0.5167	FIXCROSS	n/a	n/a	n/a	n/a	n/a	n/a	n/a	n/a
452.0532	0.7833	T_COLOR_NAME	12	Neutral	zielony	green	Neutral	Neutral	hit	n/a
452.8097	n/a	RESPONSE	n/a	n/a	n/a	n/a	n/a	n/a	n/a	green
452.8366	0.5167	FEEDBACK	n/a	n/a	n/a	n/a	n/a	n/a	n/a	n/a
453.3532	1.0333	ITI	n/a	n/a	n/a	n/a	n/a	n/a	n/a	n/a
457.3321	n/a	RESPONSE	n/a	n/a	n/a	n/a	n/a	n/a	n/a	n/a
457.3866	1.0167	ITI	n/a	n/a	n/a	n/a	n/a	n/a	n/a	n/a
458.4033	0.5167	FIXCROSS	n/a	n/a	n/a	n/a	n/a	n/a	n/a	n/a
458.92	0.9	COLOR_NAME	1	Neutral	zielony	green	Neutral	Neutral	hit	n/a
459.7931	n/a	RESPONSE	n/a	n/a	n/a	n/a	n/a	n/a	n/a	green
459.82	1.0167	ITI	n/a	n/a	n/a	n/a	n/a	n/a	n/a	n/a
460.8366	0.5167	FIXCROSS	n/a	n/a	n/a	n/a	n/a	n/a	n/a	n/a
461.3533	0.8	COLOR_NAME	2	Neutral	żółty	yellow	Neutral	Neutral	hit	n/a
462.1263	n/a	RESPONSE	n/a	n/a	n/a	n/a	n/a	n/a	n/a	yellow
462.1533	1.0167	ITI	n/a	n/a	n/a	n/a	n/a	n/a	n/a	n/a
463.17	0.5167	FIXCROSS	n/a	n/a	n/a	n/a	n/a	n/a	n/a	n/a
463.6867	0.9	COLOR_NAME	3	Neutral	zielony	green	Neutral	Neutral	hit	n/a
464.5552	n/a	RESPONSE	n/a	n/a	n/a	n/a	n/a	n/a	n/a	green
464.5867	1.0167	ITI	n/a	n/a	n/a	n/a	n/a	n/a	n/a	n/a
465.6033	0.5167	FIXCROSS	n/a	n/a	n/a	n/a	n/a	n/a	n/a	n/a
466.12	0.9333	COLOR_NAME	4	Incongruent	zielony	green	czerwony	red	hit	n/a
467.0321	n/a	RESPONSE	n/a	n/a	n/a	n/a	n/a	n/a	n/a	green
467.0533	1.0167	ITI	n/a	n/a	n/a	n/a	n/a	n/a	n/a	n/a
468.07	0.5167	FIXCROSS	n/a	n/a	n/a	n/a	n/a	n/a	n/a	n/a
468.5867	0.65	COLOR_NAME	5	Neutral	niebieski	blue	Neutral	Neutral	hit	n/a
469.2055	n/a	RESPONSE	n/a	n/a	n/a	n/a	n/a	n/a	n/a	blue
469.2367	1.0167	ITI	n/a	n/a	n/a	n/a	n/a	n/a	n/a	n/a
470.2534	0.5167	FIXCROSS	n/a	n/a	n/a	n/a	n/a	n/a	n/a	n/a
470.77	0.6	COLOR_NAME	6	Neutral	niebieski	blue	Neutral	Neutral	hit	n/a
471.3469	n/a	RESPONSE	n/a	n/a	n/a	n/a	n/a	n/a	n/a	blue
471.37	1.0167	ITI	n/a	n/a	n/a	n/a	n/a	n/a	n/a	n/a
472.3867	0.5167	FIXCROSS	n/a	n/a	n/a	n/a	n/a	n/a	n/a	n/a
472.9034	0.7167	COLOR_NAME	7	Neutral	zielony	green	Neutral	Neutral	hit	n/a
473.6001	n/a	RESPONSE	n/a	n/a	n/a	n/a	n/a	n/a	n/a	green
473.6201	1.0167	ITI	n/a	n/a	n/a	n/a	n/a	n/a	n/a	n/a
474.6367	0.5167	FIXCROSS	n/a	n/a	n/a	n/a	n/a	n/a	n/a	n/a
475.1534	0.8167	COLOR_NAME	8	Neutral	niebieski	blue	Neutral	Neutral	hit	n/a
475.9491	n/a	RESPONSE	n/a	n/a	n/a	n/a	n/a	n/a	n/a	blue
475.9701	1.0167	ITI	n/a	n/a	n/a	n/a	n/a	n/a	n/a	n/a
476.9868	0.5167	FIXCROSS	n/a	n/a	n/a	n/a	n/a	n/a	n/a	n/a
477.5034	1.0	COLOR_NAME	9	Neutral	zielony	green	Neutral	Neutral	hit	n/a
478.474	n/a	RESPONSE	n/a	n/a	n/a	n/a	n/a	n/a	n/a	green
478.5034	1.0167	ITI	n/a	n/a	n/a	n/a	n/a	n/a	n/a	n/a
479.5201	0.5167	FIXCROSS	n/a	n/a	n/a	n/a	n/a	n/a	n/a	n/a
480.0368	1.25	COLOR_NAME	10	Incongruent	czerwony	red	zielony	green	hit	n/a
481.2546	n/a	RESPONSE	n/a	n/a	n/a	n/a	n/a	n/a	n/a	red
481.2868	1.0167	ITI	n/a	n/a	n/a	n/a	n/a	n/a	n/a	n/a
482.3035	0.5167	FIXCROSS	n/a	n/a	n/a	n/a	n/a	n/a	n/a	n/a
482.8201	0.85	COLOR_NAME	11	Incongruent	zielony	green	czerwony	red	hit	n/a
483.6356	n/a	RESPONSE	n/a	n/a	n/a	n/a	n/a	n/a	n/a	green
483.6701	1.0167	ITI	n/a	n/a	n/a	n/a	n/a	n/a	n/a	n/a
484.6868	0.5167	FIXCROSS	n/a	n/a	n/a	n/a	n/a	n/a	n/a	n/a
485.2035	0.5833	COLOR_NAME	12	Incongruent	zielony	green	żółty	yellow	hit	n/a
485.7611	n/a	RESPONSE	n/a	n/a	n/a	n/a	n/a	n/a	n/a	green
485.7868	1.0167	ITI	n/a	n/a	n/a	n/a	n/a	n/a	n/a	n/a
486.8035	0.5167	FIXCROSS	n/a	n/a	n/a	n/a	n/a	n/a	n/a	n/a
487.3202	0.95	COLOR_NAME	13	Neutral	czerwony	red	Neutral	Neutral	hit	n/a
488.238	n/a	RESPONSE	n/a	n/a	n/a	n/a	n/a	n/a	n/a	red
488.2702	1.0167	ITI	n/a	n/a	n/a	n/a	n/a	n/a	n/a	n/a
489.2869	0.5167	FIXCROSS	n/a	n/a	n/a	n/a	n/a	n/a	n/a	n/a
489.8035	0.5333	COLOR_NAME	14	Neutral	czerwony	red	Neutral	Neutral	hit	n/a
490.3154	n/a	RESPONSE	n/a	n/a	n/a	n/a	n/a	n/a	n/a	red
490.3369	1.0167	ITI	n/a	n/a	n/a	n/a	n/a	n/a	n/a	n/a
491.3535	0.5167	FIXCROSS	n/a	n/a	n/a	n/a	n/a	n/a	n/a	n/a
491.8702	0.75	COLOR_NAME	15	Incongruent	żółty	yellow	niebieski	blue	hit	n/a
492.6006	n/a	RESPONSE	n/a	n/a	n/a	n/a	n/a	n/a	n/a	yellow
492.6202	1.0167	ITI	n/a	n/a	n/a	n/a	n/a	n/a	n/a	n/a
493.6369	0.5167	FIXCROSS	n/a	n/a	n/a	n/a	n/a	n/a	n/a	n/a
494.1536	0.6833	COLOR_NAME	16	Incongruent	niebieski	blue	zielony	green	hit	n/a
494.806	n/a	RESPONSE	n/a	n/a	n/a	n/a	n/a	n/a	n/a	blue
494.8369	1.0167	ITI	n/a	n/a	n/a	n/a	n/a	n/a	n/a	n/a
495.8536	0.5167	FIXCROSS	n/a	n/a	n/a	n/a	n/a	n/a	n/a	n/a
496.3702	1.5167	COLOR_NAME	17	Incongruent	czerwony	red	zielony	green	hit	n/a
497.8582	n/a	RESPONSE	n/a	n/a	n/a	n/a	n/a	n/a	n/a	red
497.8869	1.0167	ITI	n/a	n/a	n/a	n/a	n/a	n/a	n/a	n/a
498.9036	0.5167	FIXCROSS	n/a	n/a	n/a	n/a	n/a	n/a	n/a	n/a
499.4203	0.8167	COLOR_NAME	18	Neutral	żółty	yellow	Neutral	Neutral	hit	n/a
500.2073	n/a	RESPONSE	n/a	n/a	n/a	n/a	n/a	n/a	n/a	yellow
500.2369	1.0167	ITI	n/a	n/a	n/a	n/a	n/a	n/a	n/a	n/a
501.2536	0.5167	FIXCROSS	n/a	n/a	n/a	n/a	n/a	n/a	n/a	n/a
501.7703	0.85	COLOR_NAME	19	Neutral	czerwony	red	Neutral	Neutral	hit	n/a
502.5883	n/a	RESPONSE	n/a	n/a	n/a	n/a	n/a	n/a	n/a	red
502.6203	1.0167	ITI	n/a	n/a	n/a	n/a	n/a	n/a	n/a	n/a
503.637	0.5167	FIXCROSS	n/a	n/a	n/a	n/a	n/a	n/a	n/a	n/a
504.1536	0.8333	COLOR_NAME	20	Neutral	czerwony	red	Neutral	Neutral	hit	n/a
504.9693	n/a	RESPONSE	n/a	n/a	n/a	n/a	n/a	n/a	n/a	red
504.987	1.0167	ITI	n/a	n/a	n/a	n/a	n/a	n/a	n/a	n/a
506.0036	0.5167	FIXCROSS	n/a	n/a	n/a	n/a	n/a	n/a	n/a	n/a
506.5203	0.8333	COLOR_NAME	21	Incongruent	żółty	yellow	zielony	green	hit	n/a
507.3344	n/a	RESPONSE	n/a	n/a	n/a	n/a	n/a	n/a	n/a	yellow
507.3537	1.0167	ITI	n/a	n/a	n/a	n/a	n/a	n/a	n/a	n/a
508.3703	0.5167	FIXCROSS	n/a	n/a	n/a	n/a	n/a	n/a	n/a	n/a
508.887	0.4833	COLOR_NAME	22	Neutral	żółty	yellow	Neutral	Neutral	hit	n/a
509.3479	n/a	RESPONSE	n/a	n/a	n/a	n/a	n/a	n/a	n/a	yellow
509.3703	1.0167	ITI	n/a	n/a	n/a	n/a	n/a	n/a	n/a	n/a
510.387	0.5167	FIXCROSS	n/a	n/a	n/a	n/a	n/a	n/a	n/a	n/a
510.9037	0.4667	COLOR_NAME	23	Incongruent	żółty	yellow	zielony	green	hit	n/a
511.3454	n/a	RESPONSE	n/a	n/a	n/a	n/a	n/a	n/a	n/a	yellow
511.3704	1.0167	ITI	n/a	n/a	n/a	n/a	n/a	n/a	n/a	n/a
512.387	0.5167	FIXCROSS	n/a	n/a	n/a	n/a	n/a	n/a	n/a	n/a
512.9037	0.45	COLOR_NAME	24	Neutral	żółty	yellow	Neutral	Neutral	hit	n/a
513.327	n/a	RESPONSE	n/a	n/a	n/a	n/a	n/a	n/a	n/a	yellow
513.3537	1.0167	ITI	n/a	n/a	n/a	n/a	n/a	n/a	n/a	n/a
514.3704	0.5167	FIXCROSS	n/a	n/a	n/a	n/a	n/a	n/a	n/a	n/a
514.8871	0.4833	COLOR_NAME	25	Neutral	żółty	yellow	Neutral	Neutral	hit	n/a
515.3405	n/a	RESPONSE	n/a	n/a	n/a	n/a	n/a	n/a	n/a	yellow
515.3704	1.0167	ITI	n/a	n/a	n/a	n/a	n/a	n/a	n/a	n/a
516.3871	0.5167	FIXCROSS	n/a	n/a	n/a	n/a	n/a	n/a	n/a	n/a
516.9037	0.7667	COLOR_NAME	26	Incongruent	niebieski	blue	czerwony	red	hit	n/a
517.6417	n/a	RESPONSE	n/a	n/a	n/a	n/a	n/a	n/a	n/a	blue
517.6704	1.0167	ITI	n/a	n/a	n/a	n/a	n/a	n/a	n/a	n/a
518.6871	0.5167	FIXCROSS	n/a	n/a	n/a	n/a	n/a	n/a	n/a	n/a
519.2038	0.7833	COLOR_NAME	27	Neutral	zielony	green	Neutral	Neutral	hit	n/a
519.9588	n/a	RESPONSE	n/a	n/a	n/a	n/a	n/a	n/a	n/a	green
519.9871	1.0167	ITI	n/a	n/a	n/a	n/a	n/a	n/a	n/a	n/a
521.0038	0.5167	FIXCROSS	n/a	n/a	n/a	n/a	n/a	n/a	n/a	n/a
521.5204	0.7333	COLOR_NAME	28	Neutral	zielony	green	Neutral	Neutral	hit	n/a
522.228	n/a	RESPONSE	n/a	n/a	n/a	n/a	n/a	n/a	n/a	green
522.2538	1.0167	ITI	n/a	n/a	n/a	n/a	n/a	n/a	n/a	n/a
523.2705	0.5167	FIXCROSS	n/a	n/a	n/a	n/a	n/a	n/a	n/a	n/a
523.7871	0.4833	COLOR_NAME	29	Incongruent	zielony	green	niebieski	blue	hit	n/a
524.2416	n/a	RESPONSE	n/a	n/a	n/a	n/a	n/a	n/a	n/a	green
524.2705	1.0167	ITI	n/a	n/a	n/a	n/a	n/a	n/a	n/a	n/a
525.2871	0.5167	FIXCROSS	n/a	n/a	n/a	n/a	n/a	n/a	n/a	n/a
525.8038	0.4167	COLOR_NAME	30	Neutral	zielony	green	Neutral	Neutral	hit	n/a
526.1911	n/a	RESPONSE	n/a	n/a	n/a	n/a	n/a	n/a	n/a	green
526.2205	1.0167	ITI	n/a	n/a	n/a	n/a	n/a	n/a	n/a	n/a
527.2371	0.5167	FIXCROSS	n/a	n/a	n/a	n/a	n/a	n/a	n/a	n/a
527.7538	0.8333	COLOR_NAME	31	Neutral	czerwony	red	Neutral	Neutral	hit	n/a
528.5562	n/a	RESPONSE	n/a	n/a	n/a	n/a	n/a	n/a	n/a	red
528.5872	1.0167	ITI	n/a	n/a	n/a	n/a	n/a	n/a	n/a	n/a
529.6038	0.5167	FIXCROSS	n/a	n/a	n/a	n/a	n/a	n/a	n/a	n/a
530.1205	0.8167	COLOR_NAME	32	Incongruent	niebieski	blue	czerwony	red	hit	n/a
530.9053	n/a	RESPONSE	n/a	n/a	n/a	n/a	n/a	n/a	n/a	blue
530.9372	1.0167	ITI	n/a	n/a	n/a	n/a	n/a	n/a	n/a	n/a
531.9539	0.5167	FIXCROSS	n/a	n/a	n/a	n/a	n/a	n/a	n/a	n/a
532.4705	0.9167	COLOR_NAME	33	Neutral	zielony	green	Neutral	Neutral	hit	n/a
533.3663	n/a	RESPONSE	n/a	n/a	n/a	n/a	n/a	n/a	n/a	green
533.3872	1.0167	ITI	n/a	n/a	n/a	n/a	n/a	n/a	n/a	n/a
534.4039	0.5167	FIXCROSS	n/a	n/a	n/a	n/a	n/a	n/a	n/a	n/a
534.9205	0.7167	COLOR_NAME	34	Incongruent	niebieski	blue	żółty	yellow	hit	n/a
535.6035	n/a	RESPONSE	n/a	n/a	n/a	n/a	n/a	n/a	n/a	blue
535.6372	1.0167	ITI	n/a	n/a	n/a	n/a	n/a	n/a	n/a	n/a
536.6539	0.5167	FIXCROSS	n/a	n/a	n/a	n/a	n/a	n/a	n/a	n/a
537.1706	0.7833	COLOR_NAME	35	Incongruent	czerwony	red	zielony	green	hit	n/a
537.9207	n/a	RESPONSE	n/a	n/a	n/a	n/a	n/a	n/a	n/a	red
537.9539	1.0167	ITI	n/a	n/a	n/a	n/a	n/a	n/a	n/a	n/a
538.9706	0.5167	FIXCROSS	n/a	n/a	n/a	n/a	n/a	n/a	n/a	n/a
539.4872	1.0833	COLOR_NAME	36	Neutral	żółty	yellow	Neutral	Neutral	hit	n/a
540.5415	n/a	RESPONSE	n/a	n/a	n/a	n/a	n/a	n/a	n/a	yellow
540.5706	1.0167	ITI	n/a	n/a	n/a	n/a	n/a	n/a	n/a	n/a
541.5873	0.5167	FIXCROSS	n/a	n/a	n/a	n/a	n/a	n/a	n/a	n/a
542.1039	1.2833	COLOR_NAME	37	Incongruent	czerwony	red	niebieski	blue	hit	n/a
543.3539	n/a	RESPONSE	n/a	n/a	n/a	n/a	n/a	n/a	n/a	red
543.3873	1.0167	ITI	n/a	n/a	n/a	n/a	n/a	n/a	n/a	n/a
544.404	0.5167	FIXCROSS	n/a	n/a	n/a	n/a	n/a	n/a	n/a	n/a
544.9206	0.8	COLOR_NAME	38	Incongruent	żółty	yellow	czerwony	red	hit	n/a
545.687	n/a	RESPONSE	n/a	n/a	n/a	n/a	n/a	n/a	n/a	yellow
545.7206	1.0167	ITI	n/a	n/a	n/a	n/a	n/a	n/a	n/a	n/a
546.7373	0.5167	FIXCROSS	n/a	n/a	n/a	n/a	n/a	n/a	n/a	n/a
547.254	0.6167	COLOR_NAME	39	Neutral	niebieski	blue	Neutral	Neutral	hit	n/a
547.8444	n/a	RESPONSE	n/a	n/a	n/a	n/a	n/a	n/a	n/a	blue
547.8706	1.0167	ITI	n/a	n/a	n/a	n/a	n/a	n/a	n/a	n/a
548.8873	0.5167	FIXCROSS	n/a	n/a	n/a	n/a	n/a	n/a	n/a	n/a
549.404	0.95	COLOR_NAME	40	Incongruent	czerwony	red	żółty	yellow	hit	n/a
550.3213	n/a	RESPONSE	n/a	n/a	n/a	n/a	n/a	n/a	n/a	red
550.354	1.0167	ITI	n/a	n/a	n/a	n/a	n/a	n/a	n/a	n/a
551.3707	0.5167	FIXCROSS	n/a	n/a	n/a	n/a	n/a	n/a	n/a	n/a
551.8873	0.85	COLOR_NAME	41	Incongruent	niebieski	blue	czerwony	red	hit	n/a
552.7183	n/a	RESPONSE	n/a	n/a	n/a	n/a	n/a	n/a	n/a	blue
552.7373	1.0167	ITI	n/a	n/a	n/a	n/a	n/a	n/a	n/a	n/a
553.754	0.5167	FIXCROSS	n/a	n/a	n/a	n/a	n/a	n/a	n/a	n/a
554.2707	1.0667	COLOR_NAME	42	Neutral	niebieski	blue	Neutral	Neutral	hit	n/a
555.3073	n/a	RESPONSE	n/a	n/a	n/a	n/a	n/a	n/a	n/a	blue
555.3374	1.0167	ITI	n/a	n/a	n/a	n/a	n/a	n/a	n/a	n/a
556.354	0.5167	FIXCROSS	n/a	n/a	n/a	n/a	n/a	n/a	n/a	n/a
556.8707	0.7167	COLOR_NAME	43	Incongruent	zielony	green	niebieski	blue	hit	n/a
557.5604	n/a	RESPONSE	n/a	n/a	n/a	n/a	n/a	n/a	n/a	green
557.5874	1.0167	ITI	n/a	n/a	n/a	n/a	n/a	n/a	n/a	n/a
558.6041	0.5167	FIXCROSS	n/a	n/a	n/a	n/a	n/a	n/a	n/a	n/a
559.1207	1.05	COLOR_NAME	44	Neutral	czerwony	red	Neutral	Neutral	hit	n/a
560.1492	n/a	RESPONSE	n/a	n/a	n/a	n/a	n/a	n/a	n/a	red
560.1707	1.0167	ITI	n/a	n/a	n/a	n/a	n/a	n/a	n/a	n/a
561.1874	0.5167	FIXCROSS	n/a	n/a	n/a	n/a	n/a	n/a	n/a	n/a
561.7041	1.1	COLOR_NAME	45	Incongruent	żółty	yellow	czerwony	red	hit	n/a
562.77	n/a	RESPONSE	n/a	n/a	n/a	n/a	n/a	n/a	n/a	yellow
562.8041	1.0167	ITI	n/a	n/a	n/a	n/a	n/a	n/a	n/a	n/a
563.8208	0.5167	FIXCROSS	n/a	n/a	n/a	n/a	n/a	n/a	n/a	n/a
564.3374	0.7667	COLOR_NAME	46	Incongruent	zielony	green	czerwony	red	hit	n/a
565.0711	n/a	RESPONSE	n/a	n/a	n/a	n/a	n/a	n/a	n/a	green
565.1041	1.0167	ITI	n/a	n/a	n/a	n/a	n/a	n/a	n/a	n/a
566.1208	0.5167	FIXCROSS	n/a	n/a	n/a	n/a	n/a	n/a	n/a	n/a
566.6375	0.7833	COLOR_NAME	47	Neutral	czerwony	red	Neutral	Neutral	hit	n/a
567.3883	n/a	RESPONSE	n/a	n/a	n/a	n/a	n/a	n/a	n/a	red
567.4208	1.0167	ITI	n/a	n/a	n/a	n/a	n/a	n/a	n/a	n/a
568.4375	0.5167	FIXCROSS	n/a	n/a	n/a	n/a	n/a	n/a	n/a	n/a
568.9541	0.7	COLOR_NAME	48	Incongruent	zielony	green	żółty	yellow	hit	n/a
569.6255	n/a	RESPONSE	n/a	n/a	n/a	n/a	n/a	n/a	n/a	green
569.6541	1.0167	ITI	n/a	n/a	n/a	n/a	n/a	n/a	n/a	n/a
570.6708	0.5167	FIXCROSS	n/a	n/a	n/a	n/a	n/a	n/a	n/a	n/a
571.1875	0.8167	COLOR_NAME	49	Incongruent	żółty	yellow	zielony	green	hit	n/a
571.9746	n/a	RESPONSE	n/a	n/a	n/a	n/a	n/a	n/a	n/a	yellow
572.0042	1.0167	ITI	n/a	n/a	n/a	n/a	n/a	n/a	n/a	n/a
573.0208	0.5167	FIXCROSS	n/a	n/a	n/a	n/a	n/a	n/a	n/a	n/a
573.5375	0.5833	COLOR_NAME	50	Neutral	niebieski	blue	Neutral	Neutral	hit	n/a
574.1	n/a	RESPONSE	n/a	n/a	n/a	n/a	n/a	n/a	n/a	blue
574.1209	1.0167	ITI	n/a	n/a	n/a	n/a	n/a	n/a	n/a	n/a
575.1375	0.5167	FIXCROSS	n/a	n/a	n/a	n/a	n/a	n/a	n/a	n/a
575.6542	0.5833	COLOR_NAME	51	Incongruent	niebieski	blue	żółty	yellow	hit	n/a
576.2094	n/a	RESPONSE	n/a	n/a	n/a	n/a	n/a	n/a	n/a	blue
576.2375	1.0167	ITI	n/a	n/a	n/a	n/a	n/a	n/a	n/a	n/a
577.2542	0.5167	FIXCROSS	n/a	n/a	n/a	n/a	n/a	n/a	n/a	n/a
577.7709	0.45	COLOR_NAME	52	Neutral	niebieski	blue	Neutral	Neutral	hit	n/a
578.191	n/a	RESPONSE	n/a	n/a	n/a	n/a	n/a	n/a	n/a	blue
578.2209	1.0167	ITI	n/a	n/a	n/a	n/a	n/a	n/a	n/a	n/a
579.2376	0.5167	FIXCROSS	n/a	n/a	n/a	n/a	n/a	n/a	n/a	n/a
579.7542	0.7833	COLOR_NAME	53	Neutral	czerwony	red	Neutral	Neutral	hit	n/a
580.5082	n/a	RESPONSE	n/a	n/a	n/a	n/a	n/a	n/a	n/a	red
580.5376	1.0167	ITI	n/a	n/a	n/a	n/a	n/a	n/a	n/a	n/a
581.5542	0.5167	FIXCROSS	n/a	n/a	n/a	n/a	n/a	n/a	n/a	n/a
582.0709	0.6	COLOR_NAME	54	Incongruent	niebieski	blue	zielony	green	hit	n/a
582.6495	n/a	RESPONSE	n/a	n/a	n/a	n/a	n/a	n/a	n/a	blue
582.6709	1.0167	ITI	n/a	n/a	n/a	n/a	n/a	n/a	n/a	n/a
583.6876	0.5167	FIXCROSS	n/a	n/a	n/a	n/a	n/a	n/a	n/a	n/a
584.2043	0.6833	COLOR_NAME	55	Neutral	czerwony	red	Neutral	Neutral	hit	n/a
584.8547	n/a	RESPONSE	n/a	n/a	n/a	n/a	n/a	n/a	n/a	red
584.8876	1.0167	ITI	n/a	n/a	n/a	n/a	n/a	n/a	n/a	n/a
585.9043	0.5167	FIXCROSS	n/a	n/a	n/a	n/a	n/a	n/a	n/a	n/a
586.4209	0.6833	COLOR_NAME	56	Incongruent	czerwony	red	żółty	yellow	hit	n/a
587.076	n/a	RESPONSE	n/a	n/a	n/a	n/a	n/a	n/a	n/a	red
587.1043	1.0167	ITI	n/a	n/a	n/a	n/a	n/a	n/a	n/a	n/a
588.121	0.5167	FIXCROSS	n/a	n/a	n/a	n/a	n/a	n/a	n/a	n/a
588.6376	0.9	COLOR_NAME	57	Incongruent	zielony	green	niebieski	blue	hit	n/a
589.505	n/a	RESPONSE	n/a	n/a	n/a	n/a	n/a	n/a	n/a	green
589.5376	1.0167	ITI	n/a	n/a	n/a	n/a	n/a	n/a	n/a	n/a
590.5543	0.5167	FIXCROSS	n/a	n/a	n/a	n/a	n/a	n/a	n/a	n/a
591.071	1.2167	COLOR_NAME	58	Incongruent	żółty	yellow	niebieski	blue	hit	n/a
592.2536	n/a	RESPONSE	n/a	n/a	n/a	n/a	n/a	n/a	n/a	yellow
592.2877	1.0167	ITI	n/a	n/a	n/a	n/a	n/a	n/a	n/a	n/a
593.3043	0.5167	FIXCROSS	n/a	n/a	n/a	n/a	n/a	n/a	n/a	n/a
593.821	0.8833	COLOR_NAME	59	Incongruent	żółty	yellow	czerwony	red	hit	n/a
594.6827	n/a	RESPONSE	n/a	n/a	n/a	n/a	n/a	n/a	n/a	yellow
594.7043	1.0167	ITI	n/a	n/a	n/a	n/a	n/a	n/a	n/a	n/a
595.721	0.5167	FIXCROSS	n/a	n/a	n/a	n/a	n/a	n/a	n/a	n/a
596.2377	0.7167	COLOR_NAME	60	Incongruent	niebieski	blue	zielony	green	hit	n/a
596.936	n/a	RESPONSE	n/a	n/a	n/a	n/a	n/a	n/a	n/a	blue
596.9544	1.0167	ITI	n/a	n/a	n/a	n/a	n/a	n/a	n/a	n/a
597.971	0.5167	FIXCROSS	n/a	n/a	n/a	n/a	n/a	n/a	n/a	n/a
598.4877	0.7667	COLOR_NAME	61	Incongruent	czerwony	red	niebieski	blue	hit	n/a
599.2212	n/a	RESPONSE	n/a	n/a	n/a	n/a	n/a	n/a	n/a	red
599.2544	1.0167	ITI	n/a	n/a	n/a	n/a	n/a	n/a	n/a	n/a
600.271	0.5167	FIXCROSS	n/a	n/a	n/a	n/a	n/a	n/a	n/a	n/a
600.7877	0.5833	COLOR_NAME	62	Incongruent	czerwony	red	żółty	yellow	hit	n/a
601.3465	n/a	RESPONSE	n/a	n/a	n/a	n/a	n/a	n/a	n/a	red
601.3711	1.0167	ITI	n/a	n/a	n/a	n/a	n/a	n/a	n/a	n/a
602.3877	0.5167	FIXCROSS	n/a	n/a	n/a	n/a	n/a	n/a	n/a	n/a
602.9044	0.65	COLOR_NAME	63	Incongruent	niebieski	blue	żółty	yellow	hit	n/a
603.5359	n/a	RESPONSE	n/a	n/a	n/a	n/a	n/a	n/a	n/a	blue
603.5544	1.0167	ITI	n/a	n/a	n/a	n/a	n/a	n/a	n/a	n/a
604.5711	0.5167	FIXCROSS	n/a	n/a	n/a	n/a	n/a	n/a	n/a	n/a
605.0877	0.65	COLOR_NAME	64	Neutral	żółty	yellow	Neutral	Neutral	hit	n/a
605.7092	n/a	RESPONSE	n/a	n/a	n/a	n/a	n/a	n/a	n/a	yellow
605.7378	1.0167	ITI	n/a	n/a	n/a	n/a	n/a	n/a	n/a	n/a
606.7544	0.5167	FIXCROSS	n/a	n/a	n/a	n/a	n/a	n/a	n/a	n/a
607.2711	0.4333	COLOR_NAME	65	Incongruent	żółty	yellow	niebieski	blue	hit	n/a
607.6747	n/a	RESPONSE	n/a	n/a	n/a	n/a	n/a	n/a	n/a	yellow
607.7044	1.0167	ITI	n/a	n/a	n/a	n/a	n/a	n/a	n/a	n/a
608.7211	0.5167	FIXCROSS	n/a	n/a	n/a	n/a	n/a	n/a	n/a	n/a
609.2378	0.8667	COLOR_NAME	66	Incongruent	czerwony	red	niebieski	blue	hit	n/a
610.0718	n/a	RESPONSE	n/a	n/a	n/a	n/a	n/a	n/a	n/a	red
610.1045	1.0167	ITI	n/a	n/a	n/a	n/a	n/a	n/a	n/a	n/a
611.1211	0.5167	FIXCROSS	n/a	n/a	n/a	n/a	n/a	n/a	n/a	n/a
611.6378	0.5667	COLOR_NAME	67	Neutral	żółty	yellow	Neutral	Neutral	hit	n/a
612.1813	n/a	RESPONSE	n/a	n/a	n/a	n/a	n/a	n/a	n/a	yellow
612.2045	1.0167	ITI	n/a	n/a	n/a	n/a	n/a	n/a	n/a	n/a
613.2212	0.5167	FIXCROSS	n/a	n/a	n/a	n/a	n/a	n/a	n/a	n/a
613.7378	0.7834	COLOR_NAME	68	Neutral	niebieski	blue	Neutral	Neutral	hit	n/a
614.4984	n/a	RESPONSE	n/a	n/a	n/a	n/a	n/a	n/a	n/a	blue
614.5212	1.0167	ITI	n/a	n/a	n/a	n/a	n/a	n/a	n/a	n/a
615.5378	0.5167	FIXCROSS	n/a	n/a	n/a	n/a	n/a	n/a	n/a	n/a
616.0545	0.6	COLOR_NAME	69	Neutral	niebieski	blue	Neutral	Neutral	hit	n/a
616.6237	n/a	RESPONSE	n/a	n/a	n/a	n/a	n/a	n/a	n/a	blue
616.6545	1.0167	ITI	n/a	n/a	n/a	n/a	n/a	n/a	n/a	n/a
617.6712	0.5167	FIXCROSS	n/a	n/a	n/a	n/a	n/a	n/a	n/a	n/a
618.1879	0.6833	COLOR_NAME	70	Neutral	żółty	yellow	Neutral	Neutral	hit	n/a
618.8451	n/a	RESPONSE	n/a	n/a	n/a	n/a	n/a	n/a	n/a	yellow
618.8712	1.0167	ITI	n/a	n/a	n/a	n/a	n/a	n/a	n/a	n/a
619.8879	0.5167	FIXCROSS	n/a	n/a	n/a	n/a	n/a	n/a	n/a	n/a
620.4045	0.75	COLOR_NAME	71	Neutral	zielony	green	Neutral	Neutral	hit	n/a
621.1303	n/a	RESPONSE	n/a	n/a	n/a	n/a	n/a	n/a	n/a	green
621.1545	1.0167	ITI	n/a	n/a	n/a	n/a	n/a	n/a	n/a	n/a
622.1712	0.5167	FIXCROSS	n/a	n/a	n/a	n/a	n/a	n/a	n/a	n/a
622.6879	0.4833	COLOR_NAME	72	Incongruent	zielony	green	żółty	yellow	hit	n/a
623.1438	n/a	RESPONSE	n/a	n/a	n/a	n/a	n/a	n/a	n/a	green
623.1712	1.0333	ITI	n/a	n/a	n/a	n/a	n/a	n/a	n/a	n/a
627.8101	n/a	RESPONSE	n/a	n/a	n/a	n/a	n/a	n/a	n/a	n/a
