onset	duration	trial_type	trial_number	stroop_condition	stim_text(PL)	stim_text(eng)	stim_color(PL)	stim_color(eng)	response_type	response_color
0.0	n/a	RESPONSE	n/a	n/a	n/a	n/a	n/a	n/a	n/a	n/a
0.0376	1.0166	ITI	n/a	n/a	n/a	n/a	n/a	n/a	n/a	n/a
1.0543	0.5	FIXCROSS	n/a	n/a	n/a	n/a	n/a	n/a	n/a	n/a
1.5542	0.7833	T_INK	1	Neutral	xxxxxxxxx	xxxxxxxxx	żółty	yellow	hit	n/a
2.3169	n/a	RESPONSE	n/a	n/a	n/a	n/a	n/a	n/a	n/a	yellow
2.3376	0.5	FEEDBACK	n/a	n/a	n/a	n/a	n/a	n/a	n/a	n/a
2.8376	1.0	ITI	n/a	n/a	n/a	n/a	n/a	n/a	n/a	n/a
3.8375	0.5	FIXCROSS	n/a	n/a	n/a	n/a	n/a	n/a	n/a	n/a
4.3375	0.5333	T_INK	2	Neutral	xxxxxxx	xxxxxxx	czerwony	red	hit	n/a
4.8574	n/a	RESPONSE	n/a	n/a	n/a	n/a	n/a	n/a	n/a	red
4.8709	0.5	FEEDBACK	n/a	n/a	n/a	n/a	n/a	n/a	n/a	n/a
5.3709	1.0	ITI	n/a	n/a	n/a	n/a	n/a	n/a	n/a	n/a
6.3708	0.5	FIXCROSS	n/a	n/a	n/a	n/a	n/a	n/a	n/a	n/a
6.8708	1.2333	T_INK	3	Incongruent	zielony	green	żółty	yellow	hit	n/a
8.0851	n/a	RESPONSE	n/a	n/a	n/a	n/a	n/a	n/a	n/a	yellow
8.1041	0.5	FEEDBACK	n/a	n/a	n/a	n/a	n/a	n/a	n/a	n/a
8.6041	1.0	ITI	n/a	n/a	n/a	n/a	n/a	n/a	n/a	n/a
9.6041	0.5	FIXCROSS	n/a	n/a	n/a	n/a	n/a	n/a	n/a	n/a
10.1041	0.8	T_INK	4	Neutral	xxxxx	xxxxx	zielony	green	hit	n/a
10.8974	n/a	RESPONSE	n/a	n/a	n/a	n/a	n/a	n/a	n/a	green
10.9041	0.5	FEEDBACK	n/a	n/a	n/a	n/a	n/a	n/a	n/a	n/a
11.4041	1.0	ITI	n/a	n/a	n/a	n/a	n/a	n/a	n/a	n/a
12.4041	0.5	FIXCROSS	n/a	n/a	n/a	n/a	n/a	n/a	n/a	n/a
12.904	0.4	T_INK	5	Incongruent	zielony	green	niebieski	blue	hit	n/a
13.2942	n/a	RESPONSE	n/a	n/a	n/a	n/a	n/a	n/a	n/a	blue
13.304	0.5	FEEDBACK	n/a	n/a	n/a	n/a	n/a	n/a	n/a	n/a
13.804	1.0167	ITI	n/a	n/a	n/a	n/a	n/a	n/a	n/a	n/a
14.8207	0.5	FIXCROSS	n/a	n/a	n/a	n/a	n/a	n/a	n/a	n/a
15.3207	0.65	T_INK	6	Incongruent	żółty	yellow	zielony	green	hit	n/a
15.9626	n/a	RESPONSE	n/a	n/a	n/a	n/a	n/a	n/a	n/a	green
15.9707	0.5	FEEDBACK	n/a	n/a	n/a	n/a	n/a	n/a	n/a	n/a
16.4706	1.0	ITI	n/a	n/a	n/a	n/a	n/a	n/a	n/a	n/a
17.4706	0.5	FIXCROSS	n/a	n/a	n/a	n/a	n/a	n/a	n/a	n/a
17.9706	0.6166	T_INK	7	Neutral	xxxxx	xxxxx	czerwony	red	hit	n/a
18.5831	n/a	RESPONSE	n/a	n/a	n/a	n/a	n/a	n/a	n/a	red
18.5873	0.5	FEEDBACK	n/a	n/a	n/a	n/a	n/a	n/a	n/a	n/a
19.0873	1.0	ITI	n/a	n/a	n/a	n/a	n/a	n/a	n/a	n/a
20.0872	0.5	FIXCROSS	n/a	n/a	n/a	n/a	n/a	n/a	n/a	n/a
20.5872	0.7333	T_INK	8	Incongruent	czerwony	red	niebieski	blue	hit	n/a
21.3156	n/a	RESPONSE	n/a	n/a	n/a	n/a	n/a	n/a	n/a	blue
21.3206	0.5	FEEDBACK	n/a	n/a	n/a	n/a	n/a	n/a	n/a	n/a
21.8205	1.0	ITI	n/a	n/a	n/a	n/a	n/a	n/a	n/a	n/a
22.8205	0.5	FIXCROSS	n/a	n/a	n/a	n/a	n/a	n/a	n/a	n/a
23.3205	0.6167	T_INK	9	Incongruent	niebieski	blue	żółty	yellow	hit	n/a
23.92	n/a	RESPONSE	n/a	n/a	n/a	n/a	n/a	n/a	n/a	yellow
23.9372	0.5	FEEDBACK	n/a	n/a	n/a	n/a	n/a	n/a	n/a	n/a
24.4372	1.0	ITI	n/a	n/a	n/a	n/a	n/a	n/a	n/a	n/a
25.4371	0.5	FIXCROSS	n/a	n/a	n/a	n/a	n/a	n/a	n/a	n/a
25.9371	0.55	T_INK	10	Incongruent	żółty	yellow	niebieski	blue	hit	n/a
26.4766	n/a	RESPONSE	n/a	n/a	n/a	n/a	n/a	n/a	n/a	blue
26.4871	0.5	FEEDBACK	n/a	n/a	n/a	n/a	n/a	n/a	n/a	n/a
26.9871	1.0	ITI	n/a	n/a	n/a	n/a	n/a	n/a	n/a	n/a
27.9871	0.5	FIXCROSS	n/a	n/a	n/a	n/a	n/a	n/a	n/a	n/a
28.4871	0.45	T_INK	11	Neutral	xxxxxxxx	xxxxxxxx	niebieski	blue	hit	n/a
28.9212	n/a	RESPONSE	n/a	n/a	n/a	n/a	n/a	n/a	n/a	blue
28.9371	0.5	FEEDBACK	n/a	n/a	n/a	n/a	n/a	n/a	n/a	n/a
29.4371	1.0	ITI	n/a	n/a	n/a	n/a	n/a	n/a	n/a	n/a
30.437	0.5	FIXCROSS	n/a	n/a	n/a	n/a	n/a	n/a	n/a	n/a
30.937	0.5667	T_INK	12	Incongruent	czerwony	red	zielony	green	incorrect	n/a
31.4939	n/a	RESPONSE	n/a	n/a	n/a	n/a	n/a	n/a	n/a	red
31.5037	0.5	FEEDBACK	n/a	n/a	n/a	n/a	n/a	n/a	n/a	n/a
32.0037	1.0	ITI	n/a	n/a	n/a	n/a	n/a	n/a	n/a	n/a
41.2887	n/a	RESPONSE	n/a	n/a	n/a	n/a	n/a	n/a	n/a	n/a
41.3202	1.0	ITI	n/a	n/a	n/a	n/a	n/a	n/a	n/a	n/a
42.3202	0.5	FIXCROSS	n/a	n/a	n/a	n/a	n/a	n/a	n/a	n/a
42.8201	0.8667	INK	1	Neutral	xxxxxxxxx	xxxxxxxxx	żółty	yellow	hit	n/a
43.6694	n/a	RESPONSE	n/a	n/a	n/a	n/a	n/a	n/a	n/a	yellow
43.6868	1.0	ITI	n/a	n/a	n/a	n/a	n/a	n/a	n/a	n/a
44.6868	0.5	FIXCROSS	n/a	n/a	n/a	n/a	n/a	n/a	n/a	n/a
45.1868	0.6333	INK	2	Incongruent	zielony	green	żółty	yellow	hit	n/a
45.8105	n/a	RESPONSE	n/a	n/a	n/a	n/a	n/a	n/a	n/a	yellow
45.8201	1.0	ITI	n/a	n/a	n/a	n/a	n/a	n/a	n/a	n/a
46.8201	0.5	FIXCROSS	n/a	n/a	n/a	n/a	n/a	n/a	n/a	n/a
47.3201	0.4667	INK	3	Incongruent	zielony	green	żółty	yellow	hit	n/a
47.7758	n/a	RESPONSE	n/a	n/a	n/a	n/a	n/a	n/a	n/a	yellow
47.7867	1.0	ITI	n/a	n/a	n/a	n/a	n/a	n/a	n/a	n/a
48.7867	0.5	FIXCROSS	n/a	n/a	n/a	n/a	n/a	n/a	n/a	n/a
49.2867	0.65	INK	4	Neutral	xxxxxxxxx	xxxxxxxxx	czerwony	red	hit	n/a
49.933	n/a	RESPONSE	n/a	n/a	n/a	n/a	n/a	n/a	n/a	red
49.9367	1.0	ITI	n/a	n/a	n/a	n/a	n/a	n/a	n/a	n/a
50.9367	0.5	FIXCROSS	n/a	n/a	n/a	n/a	n/a	n/a	n/a	n/a
51.4367	0.6167	INK	5	Incongruent	niebieski	blue	czerwony	red	hit	n/a
52.042	n/a	RESPONSE	n/a	n/a	n/a	n/a	n/a	n/a	n/a	red
52.0533	1.0	ITI	n/a	n/a	n/a	n/a	n/a	n/a	n/a	n/a
53.0533	0.5	FIXCROSS	n/a	n/a	n/a	n/a	n/a	n/a	n/a	n/a
53.5533	0.5166	INK	6	Incongruent	zielony	green	niebieski	blue	hit	n/a
54.0553	n/a	RESPONSE	n/a	n/a	n/a	n/a	n/a	n/a	n/a	blue
54.0699	1.0	ITI	n/a	n/a	n/a	n/a	n/a	n/a	n/a	n/a
55.0699	0.5	FIXCROSS	n/a	n/a	n/a	n/a	n/a	n/a	n/a	n/a
55.5699	0.8	INK	7	Incongruent	niebieski	blue	czerwony	red	hit	n/a
56.3563	n/a	RESPONSE	n/a	n/a	n/a	n/a	n/a	n/a	n/a	red
56.3699	1.0	ITI	n/a	n/a	n/a	n/a	n/a	n/a	n/a	n/a
57.3699	0.5	FIXCROSS	n/a	n/a	n/a	n/a	n/a	n/a	n/a	n/a
57.8699	0.4833	INK	8	Neutral	xxxxxxx	xxxxxxx	żółty	yellow	hit	n/a
58.3376	n/a	RESPONSE	n/a	n/a	n/a	n/a	n/a	n/a	n/a	yellow
58.3532	1.0	ITI	n/a	n/a	n/a	n/a	n/a	n/a	n/a	n/a
59.3532	0.5	FIXCROSS	n/a	n/a	n/a	n/a	n/a	n/a	n/a	n/a
59.8532	0.6	INK	9	Neutral	xxxxxxxxx	xxxxxxxxx	zielony	green	hit	n/a
60.4468	n/a	RESPONSE	n/a	n/a	n/a	n/a	n/a	n/a	n/a	green
60.4531	1.0	ITI	n/a	n/a	n/a	n/a	n/a	n/a	n/a	n/a
61.4531	0.5	FIXCROSS	n/a	n/a	n/a	n/a	n/a	n/a	n/a	n/a
61.9531	0.55	INK	10	Neutral	xxxxxxx	xxxxxxx	żółty	yellow	hit	n/a
62.4921	n/a	RESPONSE	n/a	n/a	n/a	n/a	n/a	n/a	n/a	yellow
62.5031	1.0	ITI	n/a	n/a	n/a	n/a	n/a	n/a	n/a	n/a
63.5031	0.5	FIXCROSS	n/a	n/a	n/a	n/a	n/a	n/a	n/a	n/a
64.0031	0.6333	INK	11	Incongruent	czerwony	red	zielony	green	hit	n/a
64.6172	n/a	RESPONSE	n/a	n/a	n/a	n/a	n/a	n/a	n/a	green
64.6364	1.0	ITI	n/a	n/a	n/a	n/a	n/a	n/a	n/a	n/a
65.6364	0.5	FIXCROSS	n/a	n/a	n/a	n/a	n/a	n/a	n/a	n/a
66.1364	0.5333	INK	12	Incongruent	czerwony	red	niebieski	blue	hit	n/a
66.6624	n/a	RESPONSE	n/a	n/a	n/a	n/a	n/a	n/a	n/a	blue
66.6697	1.0	ITI	n/a	n/a	n/a	n/a	n/a	n/a	n/a	n/a
67.6697	0.5	FIXCROSS	n/a	n/a	n/a	n/a	n/a	n/a	n/a	n/a
68.1697	0.5167	INK	13	Incongruent	zielony	green	żółty	yellow	hit	n/a
68.6759	n/a	RESPONSE	n/a	n/a	n/a	n/a	n/a	n/a	n/a	yellow
68.6863	1.0	ITI	n/a	n/a	n/a	n/a	n/a	n/a	n/a	n/a
69.6863	0.5	FIXCROSS	n/a	n/a	n/a	n/a	n/a	n/a	n/a	n/a
70.1863	0.5333	INK	14	Neutral	xxxxx	xxxxx	czerwony	red	hit	n/a
70.7051	n/a	RESPONSE	n/a	n/a	n/a	n/a	n/a	n/a	n/a	red
70.7196	1.0	ITI	n/a	n/a	n/a	n/a	n/a	n/a	n/a	n/a
71.7196	0.5	FIXCROSS	n/a	n/a	n/a	n/a	n/a	n/a	n/a	n/a
72.2196	0.5833	INK	15	Neutral	xxxxxxx	xxxxxxx	niebieski	blue	hit	n/a
72.7984	n/a	RESPONSE	n/a	n/a	n/a	n/a	n/a	n/a	n/a	blue
72.8029	1.0	ITI	n/a	n/a	n/a	n/a	n/a	n/a	n/a	n/a
73.8029	0.5	FIXCROSS	n/a	n/a	n/a	n/a	n/a	n/a	n/a	n/a
74.3029	0.5833	INK	16	Incongruent	niebieski	blue	żółty	yellow	hit	n/a
74.8756	n/a	RESPONSE	n/a	n/a	n/a	n/a	n/a	n/a	n/a	yellow
74.8862	1.0	ITI	n/a	n/a	n/a	n/a	n/a	n/a	n/a	n/a
75.8862	0.5	FIXCROSS	n/a	n/a	n/a	n/a	n/a	n/a	n/a	n/a
76.3862	0.6833	INK	17	Incongruent	żółty	yellow	zielony	green	hit	n/a
77.0646	n/a	RESPONSE	n/a	n/a	n/a	n/a	n/a	n/a	n/a	green
77.0695	1.0	ITI	n/a	n/a	n/a	n/a	n/a	n/a	n/a	n/a
78.0695	0.5	FIXCROSS	n/a	n/a	n/a	n/a	n/a	n/a	n/a	n/a
78.5695	0.5833	INK	18	Neutral	xxxxxxx	xxxxxxx	czerwony	red	hit	n/a
79.1419	n/a	RESPONSE	n/a	n/a	n/a	n/a	n/a	n/a	n/a	red
79.1528	1.0	ITI	n/a	n/a	n/a	n/a	n/a	n/a	n/a	n/a
80.1528	0.5	FIXCROSS	n/a	n/a	n/a	n/a	n/a	n/a	n/a	n/a
80.6528	0.5667	INK	19	Neutral	xxxxxxxxx	xxxxxxxxx	czerwony	red	hit	n/a
81.2032	n/a	RESPONSE	n/a	n/a	n/a	n/a	n/a	n/a	n/a	red
81.2194	1.0	ITI	n/a	n/a	n/a	n/a	n/a	n/a	n/a	n/a
82.2194	0.5	FIXCROSS	n/a	n/a	n/a	n/a	n/a	n/a	n/a	n/a
82.7194	0.7	INK	20	Incongruent	żółty	yellow	zielony	green	hit	n/a
83.4082	n/a	RESPONSE	n/a	n/a	n/a	n/a	n/a	n/a	n/a	green
83.4194	1.0	ITI	n/a	n/a	n/a	n/a	n/a	n/a	n/a	n/a
84.4194	0.5	FIXCROSS	n/a	n/a	n/a	n/a	n/a	n/a	n/a	n/a
84.9194	0.55	INK	21	Neutral	xxxxx	xxxxx	zielony	green	hit	n/a
85.4534	n/a	RESPONSE	n/a	n/a	n/a	n/a	n/a	n/a	n/a	green
85.4694	1.0	ITI	n/a	n/a	n/a	n/a	n/a	n/a	n/a	n/a
86.4693	0.5	FIXCROSS	n/a	n/a	n/a	n/a	n/a	n/a	n/a	n/a
86.9693	0.6333	INK	22	Incongruent	niebieski	blue	zielony	green	hit	n/a
87.5945	n/a	RESPONSE	n/a	n/a	n/a	n/a	n/a	n/a	n/a	green
87.6026	1.0	ITI	n/a	n/a	n/a	n/a	n/a	n/a	n/a	n/a
88.6026	0.5	FIXCROSS	n/a	n/a	n/a	n/a	n/a	n/a	n/a	n/a
89.1026	0.5166	INK	23	Incongruent	czerwony	red	niebieski	blue	hit	n/a
89.6079	n/a	RESPONSE	n/a	n/a	n/a	n/a	n/a	n/a	n/a	blue
89.6193	1.0	ITI	n/a	n/a	n/a	n/a	n/a	n/a	n/a	n/a
90.6193	0.5	FIXCROSS	n/a	n/a	n/a	n/a	n/a	n/a	n/a	n/a
91.1192	0.3167	INK	24	Neutral	xxxxx	xxxxx	niebieski	blue	hit	n/a
91.4293	n/a	RESPONSE	n/a	n/a	n/a	n/a	n/a	n/a	n/a	blue
91.4359	1.0	ITI	n/a	n/a	n/a	n/a	n/a	n/a	n/a	n/a
92.4359	0.5	FIXCROSS	n/a	n/a	n/a	n/a	n/a	n/a	n/a	n/a
92.9359	0.3667	INK	25	Incongruent	żółty	yellow	niebieski	blue	hit	n/a
93.2988	n/a	RESPONSE	n/a	n/a	n/a	n/a	n/a	n/a	n/a	blue
93.3025	1.0	ITI	n/a	n/a	n/a	n/a	n/a	n/a	n/a	n/a
94.3025	0.5	FIXCROSS	n/a	n/a	n/a	n/a	n/a	n/a	n/a	n/a
94.8025	0.4	INK	26	Neutral	xxxxxxx	xxxxxxx	niebieski	blue	hit	n/a
95.1843	n/a	RESPONSE	n/a	n/a	n/a	n/a	n/a	n/a	n/a	blue
95.2025	1.0	ITI	n/a	n/a	n/a	n/a	n/a	n/a	n/a	n/a
96.2025	0.5	FIXCROSS	n/a	n/a	n/a	n/a	n/a	n/a	n/a	n/a
96.7025	0.4333	INK	27	Incongruent	żółty	yellow	niebieski	blue	hit	n/a
97.1177	n/a	RESPONSE	n/a	n/a	n/a	n/a	n/a	n/a	n/a	blue
97.1358	1.0	ITI	n/a	n/a	n/a	n/a	n/a	n/a	n/a	n/a
98.1358	0.5	FIXCROSS	n/a	n/a	n/a	n/a	n/a	n/a	n/a	n/a
98.6358	0.65	INK	28	Incongruent	czerwony	red	zielony	green	hit	n/a
99.2748	n/a	RESPONSE	n/a	n/a	n/a	n/a	n/a	n/a	n/a	green
99.2858	1.0	ITI	n/a	n/a	n/a	n/a	n/a	n/a	n/a	n/a
100.2857	0.5	FIXCROSS	n/a	n/a	n/a	n/a	n/a	n/a	n/a	n/a
100.7857	0.6167	INK	29	Neutral	xxxxxxxx	xxxxxxxx	żółty	yellow	hit	n/a
101.3839	n/a	RESPONSE	n/a	n/a	n/a	n/a	n/a	n/a	n/a	yellow
101.4024	1.0	ITI	n/a	n/a	n/a	n/a	n/a	n/a	n/a	n/a
102.4024	0.5	FIXCROSS	n/a	n/a	n/a	n/a	n/a	n/a	n/a	n/a
102.9023	1.0666	INK	30	Incongruent	zielony	green	czerwony	red	hit	n/a
103.9565	n/a	RESPONSE	n/a	n/a	n/a	n/a	n/a	n/a	n/a	red
103.969	1.0	ITI	n/a	n/a	n/a	n/a	n/a	n/a	n/a	n/a
104.969	0.5	FIXCROSS	n/a	n/a	n/a	n/a	n/a	n/a	n/a	n/a
105.469	0.6667	INK	31	Neutral	xxxxx	xxxxx	zielony	green	hit	n/a
106.1296	n/a	RESPONSE	n/a	n/a	n/a	n/a	n/a	n/a	n/a	green
106.1356	1.0	ITI	n/a	n/a	n/a	n/a	n/a	n/a	n/a	n/a
107.1356	0.5	FIXCROSS	n/a	n/a	n/a	n/a	n/a	n/a	n/a	n/a
107.6356	0.4667	INK	32	Neutral	xxxxxxxx	xxxxxxxx	niebieski	blue	hit	n/a
108.095	n/a	RESPONSE	n/a	n/a	n/a	n/a	n/a	n/a	n/a	blue
108.1023	1.0	ITI	n/a	n/a	n/a	n/a	n/a	n/a	n/a	n/a
109.1022	0.5	FIXCROSS	n/a	n/a	n/a	n/a	n/a	n/a	n/a	n/a
109.6022	0.55	INK	33	Neutral	xxxxxxxxx	xxxxxxxxx	żółty	yellow	hit	n/a
110.1402	n/a	RESPONSE	n/a	n/a	n/a	n/a	n/a	n/a	n/a	yellow
110.1522	1.0	ITI	n/a	n/a	n/a	n/a	n/a	n/a	n/a	n/a
111.1522	0.5	FIXCROSS	n/a	n/a	n/a	n/a	n/a	n/a	n/a	n/a
111.6522	0.5667	INK	34	Incongruent	żółty	yellow	niebieski	blue	hit	n/a
112.2014	n/a	RESPONSE	n/a	n/a	n/a	n/a	n/a	n/a	n/a	blue
112.2188	1.0	ITI	n/a	n/a	n/a	n/a	n/a	n/a	n/a	n/a
113.2188	0.5	FIXCROSS	n/a	n/a	n/a	n/a	n/a	n/a	n/a	n/a
113.7188	0.4	INK	35	Neutral	xxxxx	xxxxx	niebieski	blue	hit	n/a
114.1029	n/a	RESPONSE	n/a	n/a	n/a	n/a	n/a	n/a	n/a	blue
114.1188	1.0	ITI	n/a	n/a	n/a	n/a	n/a	n/a	n/a	n/a
115.1188	0.5	FIXCROSS	n/a	n/a	n/a	n/a	n/a	n/a	n/a	n/a
115.6188	0.5	INK	36	Incongruent	żółty	yellow	czerwony	red	hit	n/a
116.1002	n/a	RESPONSE	n/a	n/a	n/a	n/a	n/a	n/a	n/a	red
116.1188	1.0	ITI	n/a	n/a	n/a	n/a	n/a	n/a	n/a	n/a
117.1187	0.5	FIXCROSS	n/a	n/a	n/a	n/a	n/a	n/a	n/a	n/a
117.6187	0.5167	INK	37	Neutral	xxxxxxxx	xxxxxxxx	żółty	yellow	hit	n/a
118.1295	n/a	RESPONSE	n/a	n/a	n/a	n/a	n/a	n/a	n/a	yellow
118.1354	1.0	ITI	n/a	n/a	n/a	n/a	n/a	n/a	n/a	n/a
119.1354	0.5	FIXCROSS	n/a	n/a	n/a	n/a	n/a	n/a	n/a	n/a
119.6354	0.75	INK	38	Incongruent	niebieski	blue	czerwony	red	hit	n/a
120.3665	n/a	RESPONSE	n/a	n/a	n/a	n/a	n/a	n/a	n/a	red
120.3853	1.0	ITI	n/a	n/a	n/a	n/a	n/a	n/a	n/a	n/a
121.3853	0.5	FIXCROSS	n/a	n/a	n/a	n/a	n/a	n/a	n/a	n/a
121.8853	0.5	INK	39	Neutral	xxxxx	xxxxx	niebieski	blue	hit	n/a
122.3799	n/a	RESPONSE	n/a	n/a	n/a	n/a	n/a	n/a	n/a	blue
122.3853	1.0	ITI	n/a	n/a	n/a	n/a	n/a	n/a	n/a	n/a
123.3853	0.5	FIXCROSS	n/a	n/a	n/a	n/a	n/a	n/a	n/a	n/a
123.8853	0.4666	INK	40	Incongruent	niebieski	blue	zielony	green	hit	n/a
124.3452	n/a	RESPONSE	n/a	n/a	n/a	n/a	n/a	n/a	n/a	green
124.3519	1.0	ITI	n/a	n/a	n/a	n/a	n/a	n/a	n/a	n/a
125.3519	0.5	FIXCROSS	n/a	n/a	n/a	n/a	n/a	n/a	n/a	n/a
125.8519	0.6167	INK	41	Incongruent	zielony	green	niebieski	blue	hit	n/a
126.4545	n/a	RESPONSE	n/a	n/a	n/a	n/a	n/a	n/a	n/a	blue
126.4686	1.0	ITI	n/a	n/a	n/a	n/a	n/a	n/a	n/a	n/a
127.4686	0.5	FIXCROSS	n/a	n/a	n/a	n/a	n/a	n/a	n/a	n/a
127.9685	0.55	INK	42	Neutral	xxxxxxxx	xxxxxxxx	niebieski	blue	hit	n/a
128.4998	n/a	RESPONSE	n/a	n/a	n/a	n/a	n/a	n/a	n/a	blue
128.5185	1.0	ITI	n/a	n/a	n/a	n/a	n/a	n/a	n/a	n/a
129.5185	0.5	FIXCROSS	n/a	n/a	n/a	n/a	n/a	n/a	n/a	n/a
130.0185	0.3833	INK	43	Neutral	xxxxxxxx	xxxxxxxx	niebieski	blue	hit	n/a
130.3853	n/a	RESPONSE	n/a	n/a	n/a	n/a	n/a	n/a	n/a	blue
130.4018	1.0	ITI	n/a	n/a	n/a	n/a	n/a	n/a	n/a	n/a
131.4018	0.5	FIXCROSS	n/a	n/a	n/a	n/a	n/a	n/a	n/a	n/a
131.9018	0.3667	INK	44	Incongruent	zielony	green	niebieski	blue	hit	n/a
132.2548	n/a	RESPONSE	n/a	n/a	n/a	n/a	n/a	n/a	n/a	blue
132.2685	1.0	ITI	n/a	n/a	n/a	n/a	n/a	n/a	n/a	n/a
133.2684	0.5	FIXCROSS	n/a	n/a	n/a	n/a	n/a	n/a	n/a	n/a
133.7684	0.5167	INK	45	Neutral	xxxxxxxxx	xxxxxxxxx	czerwony	red	hit	n/a
134.2681	n/a	RESPONSE	n/a	n/a	n/a	n/a	n/a	n/a	n/a	red
134.2851	1.0	ITI	n/a	n/a	n/a	n/a	n/a	n/a	n/a	n/a
135.2851	0.5	FIXCROSS	n/a	n/a	n/a	n/a	n/a	n/a	n/a	n/a
135.7851	0.5333	INK	46	Neutral	xxxxxxx	xxxxxxx	czerwony	red	hit	n/a
136.3133	n/a	RESPONSE	n/a	n/a	n/a	n/a	n/a	n/a	n/a	red
136.3184	1.0	ITI	n/a	n/a	n/a	n/a	n/a	n/a	n/a	n/a
137.3184	0.5	FIXCROSS	n/a	n/a	n/a	n/a	n/a	n/a	n/a	n/a
137.8184	0.6	INK	47	Incongruent	żółty	yellow	zielony	green	hit	n/a
138.4066	n/a	RESPONSE	n/a	n/a	n/a	n/a	n/a	n/a	n/a	green
138.4183	1.0	ITI	n/a	n/a	n/a	n/a	n/a	n/a	n/a	n/a
139.4183	0.5	FIXCROSS	n/a	n/a	n/a	n/a	n/a	n/a	n/a	n/a
139.9183	0.4667	INK	48	Neutral	xxxxxxxxx	xxxxxxxxx	zielony	green	hit	n/a
140.3719	n/a	RESPONSE	n/a	n/a	n/a	n/a	n/a	n/a	n/a	green
140.385	1.0	ITI	n/a	n/a	n/a	n/a	n/a	n/a	n/a	n/a
141.385	0.5	FIXCROSS	n/a	n/a	n/a	n/a	n/a	n/a	n/a	n/a
141.8849	0.4167	INK	49	Neutral	xxxxxxx	xxxxxxx	żółty	yellow	hit	n/a
142.2893	n/a	RESPONSE	n/a	n/a	n/a	n/a	n/a	n/a	n/a	yellow
142.3016	1.0	ITI	n/a	n/a	n/a	n/a	n/a	n/a	n/a	n/a
143.3016	0.5	FIXCROSS	n/a	n/a	n/a	n/a	n/a	n/a	n/a	n/a
143.8016	0.5167	INK	50	Incongruent	niebieski	blue	żółty	yellow	hit	n/a
144.3027	n/a	RESPONSE	n/a	n/a	n/a	n/a	n/a	n/a	n/a	yellow
144.3182	1.0	ITI	n/a	n/a	n/a	n/a	n/a	n/a	n/a	n/a
145.3182	0.5	FIXCROSS	n/a	n/a	n/a	n/a	n/a	n/a	n/a	n/a
145.8182	0.55	INK	51	Incongruent	czerwony	red	niebieski	blue	hit	n/a
146.3639	n/a	RESPONSE	n/a	n/a	n/a	n/a	n/a	n/a	n/a	blue
146.3682	1.0	ITI	n/a	n/a	n/a	n/a	n/a	n/a	n/a	n/a
147.3682	0.5	FIXCROSS	n/a	n/a	n/a	n/a	n/a	n/a	n/a	n/a
147.8682	0.6667	INK	52	Incongruent	czerwony	red	żółty	yellow	hit	n/a
148.521	n/a	RESPONSE	n/a	n/a	n/a	n/a	n/a	n/a	n/a	yellow
148.5348	1.0	ITI	n/a	n/a	n/a	n/a	n/a	n/a	n/a	n/a
149.5348	0.5	FIXCROSS	n/a	n/a	n/a	n/a	n/a	n/a	n/a	n/a
150.0348	0.5667	INK	53	Neutral	xxxxxxxx	xxxxxxxx	żółty	yellow	hit	n/a
150.5822	n/a	RESPONSE	n/a	n/a	n/a	n/a	n/a	n/a	n/a	yellow
150.6015	1.0	ITI	n/a	n/a	n/a	n/a	n/a	n/a	n/a	n/a
151.6014	0.5	FIXCROSS	n/a	n/a	n/a	n/a	n/a	n/a	n/a	n/a
152.1014	0.5333	INK	54	Neutral	xxxxxxx	xxxxxxx	czerwony	red	hit	n/a
152.6275	n/a	RESPONSE	n/a	n/a	n/a	n/a	n/a	n/a	n/a	red
152.6347	1.0	ITI	n/a	n/a	n/a	n/a	n/a	n/a	n/a	n/a
153.6347	0.5	FIXCROSS	n/a	n/a	n/a	n/a	n/a	n/a	n/a	n/a
154.1347	0.6333	INK	55	Neutral	xxxxx	xxxxx	czerwony	red	hit	n/a
154.7526	n/a	RESPONSE	n/a	n/a	n/a	n/a	n/a	n/a	n/a	red
154.768	1.0	ITI	n/a	n/a	n/a	n/a	n/a	n/a	n/a	n/a
155.768	0.5	FIXCROSS	n/a	n/a	n/a	n/a	n/a	n/a	n/a	n/a
156.268	0.35	INK	56	Neutral	xxxxx	xxxxx	czerwony	red	hit	n/a
156.6062	n/a	RESPONSE	n/a	n/a	n/a	n/a	n/a	n/a	n/a	red
156.618	1.0	ITI	n/a	n/a	n/a	n/a	n/a	n/a	n/a	n/a
157.618	0.5	FIXCROSS	n/a	n/a	n/a	n/a	n/a	n/a	n/a	n/a
158.118	0.6833	INK	57	Incongruent	niebieski	blue	żółty	yellow	hit	n/a
158.7952	n/a	RESPONSE	n/a	n/a	n/a	n/a	n/a	n/a	n/a	yellow
158.8013	1.0	ITI	n/a	n/a	n/a	n/a	n/a	n/a	n/a	n/a
159.8013	0.5	FIXCROSS	n/a	n/a	n/a	n/a	n/a	n/a	n/a	n/a
160.3013	0.5667	INK	58	Incongruent	czerwony	red	żółty	yellow	hit	n/a
160.8564	n/a	RESPONSE	n/a	n/a	n/a	n/a	n/a	n/a	n/a	yellow
160.8679	1.0	ITI	n/a	n/a	n/a	n/a	n/a	n/a	n/a	n/a
161.8679	0.5	FIXCROSS	n/a	n/a	n/a	n/a	n/a	n/a	n/a	n/a
162.3679	0.5833	INK	59	Neutral	xxxxxxxxx	xxxxxxxxx	zielony	green	hit	n/a
162.9336	n/a	RESPONSE	n/a	n/a	n/a	n/a	n/a	n/a	n/a	green
162.9512	1.0	ITI	n/a	n/a	n/a	n/a	n/a	n/a	n/a	n/a
163.9512	0.5	FIXCROSS	n/a	n/a	n/a	n/a	n/a	n/a	n/a	n/a
164.4512	0.6	INK	60	Incongruent	zielony	green	czerwony	red	hit	n/a
165.0429	n/a	RESPONSE	n/a	n/a	n/a	n/a	n/a	n/a	n/a	red
165.0512	1.0	ITI	n/a	n/a	n/a	n/a	n/a	n/a	n/a	n/a
166.0511	0.5	FIXCROSS	n/a	n/a	n/a	n/a	n/a	n/a	n/a	n/a
166.5511	0.7833	INK	61	Incongruent	żółty	yellow	czerwony	red	hit	n/a
167.3278	n/a	RESPONSE	n/a	n/a	n/a	n/a	n/a	n/a	n/a	red
167.3345	1.0	ITI	n/a	n/a	n/a	n/a	n/a	n/a	n/a	n/a
168.3344	0.5	FIXCROSS	n/a	n/a	n/a	n/a	n/a	n/a	n/a	n/a
168.8344	0.55	INK	62	Incongruent	czerwony	red	żółty	yellow	hit	n/a
169.3731	n/a	RESPONSE	n/a	n/a	n/a	n/a	n/a	n/a	n/a	yellow
169.3844	1.0	ITI	n/a	n/a	n/a	n/a	n/a	n/a	n/a	n/a
170.3844	0.5	FIXCROSS	n/a	n/a	n/a	n/a	n/a	n/a	n/a	n/a
170.8844	0.5667	INK	63	Incongruent	niebieski	blue	zielony	green	hit	n/a
171.4342	n/a	RESPONSE	n/a	n/a	n/a	n/a	n/a	n/a	n/a	green
171.451	1.0	ITI	n/a	n/a	n/a	n/a	n/a	n/a	n/a	n/a
172.451	0.5	FIXCROSS	n/a	n/a	n/a	n/a	n/a	n/a	n/a	n/a
172.951	0.6167	INK	64	Neutral	xxxxxxxxx	xxxxxxxxx	żółty	yellow	hit	n/a
173.5594	n/a	RESPONSE	n/a	n/a	n/a	n/a	n/a	n/a	n/a	yellow
173.5677	1.0	ITI	n/a	n/a	n/a	n/a	n/a	n/a	n/a	n/a
174.5677	0.5	FIXCROSS	n/a	n/a	n/a	n/a	n/a	n/a	n/a	n/a
175.0676	0.65	INK	65	Neutral	xxxxxxx	xxxxxxx	niebieski	blue	hit	n/a
175.7005	n/a	RESPONSE	n/a	n/a	n/a	n/a	n/a	n/a	n/a	blue
175.7176	1.0	ITI	n/a	n/a	n/a	n/a	n/a	n/a	n/a	n/a
176.7176	0.5	FIXCROSS	n/a	n/a	n/a	n/a	n/a	n/a	n/a	n/a
177.2176	1.0333	INK	66	Neutral	xxxxxxxx	xxxxxxxx	zielony	green	hit	n/a
178.2412	n/a	RESPONSE	n/a	n/a	n/a	n/a	n/a	n/a	n/a	green
178.2509	1.0	ITI	n/a	n/a	n/a	n/a	n/a	n/a	n/a	n/a
179.2509	0.5	FIXCROSS	n/a	n/a	n/a	n/a	n/a	n/a	n/a	n/a
179.7509	0.6167	INK	67	Incongruent	zielony	green	czerwony	red	hit	n/a
180.3502	n/a	RESPONSE	n/a	n/a	n/a	n/a	n/a	n/a	n/a	red
180.3676	1.0	ITI	n/a	n/a	n/a	n/a	n/a	n/a	n/a	n/a
181.3675	0.5	FIXCROSS	n/a	n/a	n/a	n/a	n/a	n/a	n/a	n/a
181.8675	0.95	INK	68	Neutral	xxxxxxxx	xxxxxxxx	zielony	green	hit	n/a
182.811	n/a	RESPONSE	n/a	n/a	n/a	n/a	n/a	n/a	n/a	green
182.8175	1.0	ITI	n/a	n/a	n/a	n/a	n/a	n/a	n/a	n/a
183.8175	0.5	FIXCROSS	n/a	n/a	n/a	n/a	n/a	n/a	n/a	n/a
184.3175	0.4833	INK	69	Neutral	xxxxxxxx	xxxxxxxx	zielony	green	hit	n/a
184.7923	n/a	RESPONSE	n/a	n/a	n/a	n/a	n/a	n/a	n/a	green
184.8008	1.0	ITI	n/a	n/a	n/a	n/a	n/a	n/a	n/a	n/a
185.8008	0.5	FIXCROSS	n/a	n/a	n/a	n/a	n/a	n/a	n/a	n/a
186.3008	0.7833	INK	70	Incongruent	żółty	yellow	czerwony	red	hit	n/a
187.0772	n/a	RESPONSE	n/a	n/a	n/a	n/a	n/a	n/a	n/a	red
187.0841	1.0	ITI	n/a	n/a	n/a	n/a	n/a	n/a	n/a	n/a
188.0841	0.5	FIXCROSS	n/a	n/a	n/a	n/a	n/a	n/a	n/a	n/a
188.5841	0.7333	INK	71	Neutral	xxxxx	xxxxx	zielony	green	hit	n/a
189.3142	n/a	RESPONSE	n/a	n/a	n/a	n/a	n/a	n/a	n/a	green
189.3174	1.0	ITI	n/a	n/a	n/a	n/a	n/a	n/a	n/a	n/a
190.3173	0.5	FIXCROSS	n/a	n/a	n/a	n/a	n/a	n/a	n/a	n/a
190.8173	0.6167	INK	72	Incongruent	czerwony	red	zielony	green	hit	n/a
191.4234	n/a	RESPONSE	n/a	n/a	n/a	n/a	n/a	n/a	n/a	green
191.434	1.0333	ITI	n/a	n/a	n/a	n/a	n/a	n/a	n/a	n/a
204.3341	n/a	RESPONSE	n/a	n/a	n/a	n/a	n/a	n/a	n/a	n/a
204.3671	1.0	ITI	n/a	n/a	n/a	n/a	n/a	n/a	n/a	n/a
205.3671	0.5	FIXCROSS	n/a	n/a	n/a	n/a	n/a	n/a	n/a	n/a
205.8671	1.35	T_COLOR_NAME	1	Neutral	niebieski	blue	Neutral	Neutral	hit	n/a
207.2102	n/a	RESPONSE	n/a	n/a	n/a	n/a	n/a	n/a	n/a	blue
207.217	0.5	FEEDBACK	n/a	n/a	n/a	n/a	n/a	n/a	n/a	n/a
207.717	1.0	ITI	n/a	n/a	n/a	n/a	n/a	n/a	n/a	n/a
208.717	0.5	FIXCROSS	n/a	n/a	n/a	n/a	n/a	n/a	n/a	n/a
209.217	0.6	T_COLOR_NAME	2	Neutral	żółty	yellow	Neutral	Neutral	hit	n/a
209.7988	n/a	RESPONSE	n/a	n/a	n/a	n/a	n/a	n/a	n/a	yellow
209.817	0.5	FEEDBACK	n/a	n/a	n/a	n/a	n/a	n/a	n/a	n/a
210.317	1.0	ITI	n/a	n/a	n/a	n/a	n/a	n/a	n/a	n/a
211.317	0.5	FIXCROSS	n/a	n/a	n/a	n/a	n/a	n/a	n/a	n/a
211.8169	1.2	T_COLOR_NAME	3	Incongruent	zielony	green	niebieski	blue	hit	n/a
213.0102	n/a	RESPONSE	n/a	n/a	n/a	n/a	n/a	n/a	n/a	green
213.0169	0.5	FEEDBACK	n/a	n/a	n/a	n/a	n/a	n/a	n/a	n/a
213.5169	1.0	ITI	n/a	n/a	n/a	n/a	n/a	n/a	n/a	n/a
214.5169	0.5	FIXCROSS	n/a	n/a	n/a	n/a	n/a	n/a	n/a	n/a
215.0169	0.7166	T_COLOR_NAME	4	Neutral	żółty	yellow	Neutral	Neutral	hit	n/a
215.7266	n/a	RESPONSE	n/a	n/a	n/a	n/a	n/a	n/a	n/a	yellow
215.7335	0.5	FEEDBACK	n/a	n/a	n/a	n/a	n/a	n/a	n/a	n/a
216.2335	1.0	ITI	n/a	n/a	n/a	n/a	n/a	n/a	n/a	n/a
217.2335	0.5	FIXCROSS	n/a	n/a	n/a	n/a	n/a	n/a	n/a	n/a
217.7335	0.6833	T_COLOR_NAME	5	Incongruent	żółty	yellow	zielony	green	hit	n/a
218.4109	n/a	RESPONSE	n/a	n/a	n/a	n/a	n/a	n/a	n/a	yellow
218.4168	0.5	FEEDBACK	n/a	n/a	n/a	n/a	n/a	n/a	n/a	n/a
218.9168	1.0	ITI	n/a	n/a	n/a	n/a	n/a	n/a	n/a	n/a
219.9168	0.5	FIXCROSS	n/a	n/a	n/a	n/a	n/a	n/a	n/a	n/a
220.4168	0.6666	T_COLOR_NAME	6	Incongruent	niebieski	blue	żółty	yellow	hit	n/a
221.0633	n/a	RESPONSE	n/a	n/a	n/a	n/a	n/a	n/a	n/a	blue
221.0834	0.5	FEEDBACK	n/a	n/a	n/a	n/a	n/a	n/a	n/a	n/a
221.5834	1.0	ITI	n/a	n/a	n/a	n/a	n/a	n/a	n/a	n/a
222.5834	0.5	FIXCROSS	n/a	n/a	n/a	n/a	n/a	n/a	n/a	n/a
223.0834	0.7167	T_COLOR_NAME	7	Neutral	zielony	green	Neutral	Neutral	hit	n/a
223.7797	n/a	RESPONSE	n/a	n/a	n/a	n/a	n/a	n/a	n/a	green
223.8001	0.5	FEEDBACK	n/a	n/a	n/a	n/a	n/a	n/a	n/a	n/a
224.3	1.0	ITI	n/a	n/a	n/a	n/a	n/a	n/a	n/a	n/a
225.3	0.5	FIXCROSS	n/a	n/a	n/a	n/a	n/a	n/a	n/a	n/a
225.8	0.5666	T_COLOR_NAME	8	Neutral	czerwony	red	Neutral	Neutral	hit	n/a
226.3522	n/a	RESPONSE	n/a	n/a	n/a	n/a	n/a	n/a	n/a	red
226.3667	0.5	FEEDBACK	n/a	n/a	n/a	n/a	n/a	n/a	n/a	n/a
226.8667	1.0	ITI	n/a	n/a	n/a	n/a	n/a	n/a	n/a	n/a
227.8666	0.5	FIXCROSS	n/a	n/a	n/a	n/a	n/a	n/a	n/a	n/a
228.3666	0.95	T_COLOR_NAME	9	Incongruent	zielony	green	żółty	yellow	hit	n/a
229.3082	n/a	RESPONSE	n/a	n/a	n/a	n/a	n/a	n/a	n/a	green
229.3166	0.5	FEEDBACK	n/a	n/a	n/a	n/a	n/a	n/a	n/a	n/a
229.8166	1.0	ITI	n/a	n/a	n/a	n/a	n/a	n/a	n/a	n/a
230.8166	0.5	FIXCROSS	n/a	n/a	n/a	n/a	n/a	n/a	n/a	n/a
231.3166	0.7	T_COLOR_NAME	10	Incongruent	czerwony	red	zielony	green	hit	n/a
232.0086	n/a	RESPONSE	n/a	n/a	n/a	n/a	n/a	n/a	n/a	red
232.0166	0.5	FEEDBACK	n/a	n/a	n/a	n/a	n/a	n/a	n/a	n/a
232.5165	1.0	ITI	n/a	n/a	n/a	n/a	n/a	n/a	n/a	n/a
233.5165	0.5	FIXCROSS	n/a	n/a	n/a	n/a	n/a	n/a	n/a	n/a
234.0165	0.5333	T_COLOR_NAME	11	Incongruent	czerwony	red	niebieski	blue	hit	n/a
234.5331	n/a	RESPONSE	n/a	n/a	n/a	n/a	n/a	n/a	n/a	red
234.5499	0.5	FEEDBACK	n/a	n/a	n/a	n/a	n/a	n/a	n/a	n/a
235.0498	1.0	ITI	n/a	n/a	n/a	n/a	n/a	n/a	n/a	n/a
236.0498	0.5	FIXCROSS	n/a	n/a	n/a	n/a	n/a	n/a	n/a	n/a
236.5498	0.6	T_COLOR_NAME	12	Incongruent	żółty	yellow	niebieski	blue	hit	n/a
237.1376	n/a	RESPONSE	n/a	n/a	n/a	n/a	n/a	n/a	n/a	yellow
237.1498	0.5	FEEDBACK	n/a	n/a	n/a	n/a	n/a	n/a	n/a	n/a
237.6498	1.0	ITI	n/a	n/a	n/a	n/a	n/a	n/a	n/a	n/a
243.6568	n/a	RESPONSE	n/a	n/a	n/a	n/a	n/a	n/a	n/a	n/a
243.683	1.0	ITI	n/a	n/a	n/a	n/a	n/a	n/a	n/a	n/a
244.683	0.5	FIXCROSS	n/a	n/a	n/a	n/a	n/a	n/a	n/a	n/a
245.183	0.6833	COLOR_NAME	1	Neutral	żółty	yellow	Neutral	Neutral	hit	n/a
245.8617	n/a	RESPONSE	n/a	n/a	n/a	n/a	n/a	n/a	n/a	yellow
245.8663	1.0	ITI	n/a	n/a	n/a	n/a	n/a	n/a	n/a	n/a
246.8663	0.5	FIXCROSS	n/a	n/a	n/a	n/a	n/a	n/a	n/a	n/a
247.3663	0.7333	COLOR_NAME	2	Incongruent	żółty	yellow	czerwony	red	hit	n/a
248.0827	n/a	RESPONSE	n/a	n/a	n/a	n/a	n/a	n/a	n/a	yellow
248.0996	1.0	ITI	n/a	n/a	n/a	n/a	n/a	n/a	n/a	n/a
249.0996	0.5	FIXCROSS	n/a	n/a	n/a	n/a	n/a	n/a	n/a	n/a
249.5996	0.6	COLOR_NAME	3	Neutral	niebieski	blue	Neutral	Neutral	hit	n/a
250.192	n/a	RESPONSE	n/a	n/a	n/a	n/a	n/a	n/a	n/a	blue
250.1996	1.0	ITI	n/a	n/a	n/a	n/a	n/a	n/a	n/a	n/a
251.1995	0.5	FIXCROSS	n/a	n/a	n/a	n/a	n/a	n/a	n/a	n/a
251.6995	0.6667	COLOR_NAME	4	Incongruent	żółty	yellow	niebieski	blue	hit	n/a
252.349	n/a	RESPONSE	n/a	n/a	n/a	n/a	n/a	n/a	n/a	yellow
252.3662	1.0	ITI	n/a	n/a	n/a	n/a	n/a	n/a	n/a	n/a
253.3662	0.5	FIXCROSS	n/a	n/a	n/a	n/a	n/a	n/a	n/a	n/a
253.8662	0.6666	COLOR_NAME	5	Neutral	zielony	green	Neutral	Neutral	hit	n/a
254.5221	n/a	RESPONSE	n/a	n/a	n/a	n/a	n/a	n/a	n/a	green
254.5328	1.0	ITI	n/a	n/a	n/a	n/a	n/a	n/a	n/a	n/a
255.5328	0.5	FIXCROSS	n/a	n/a	n/a	n/a	n/a	n/a	n/a	n/a
256.0328	0.7	COLOR_NAME	6	Neutral	żółty	yellow	Neutral	Neutral	hit	n/a
256.7272	n/a	RESPONSE	n/a	n/a	n/a	n/a	n/a	n/a	n/a	yellow
256.7328	1.0	ITI	n/a	n/a	n/a	n/a	n/a	n/a	n/a	n/a
257.7328	0.5	FIXCROSS	n/a	n/a	n/a	n/a	n/a	n/a	n/a	n/a
258.2327	0.7833	COLOR_NAME	7	Incongruent	niebieski	blue	zielony	green	hit	n/a
259.0121	n/a	RESPONSE	n/a	n/a	n/a	n/a	n/a	n/a	n/a	blue
259.016	1.0	ITI	n/a	n/a	n/a	n/a	n/a	n/a	n/a	n/a
260.016	0.5	FIXCROSS	n/a	n/a	n/a	n/a	n/a	n/a	n/a	n/a
260.516	0.6	COLOR_NAME	8	Neutral	żółty	yellow	Neutral	Neutral	hit	n/a
261.1054	n/a	RESPONSE	n/a	n/a	n/a	n/a	n/a	n/a	n/a	yellow
261.116	1.0	ITI	n/a	n/a	n/a	n/a	n/a	n/a	n/a	n/a
262.116	0.5	FIXCROSS	n/a	n/a	n/a	n/a	n/a	n/a	n/a	n/a
262.616	0.8167	COLOR_NAME	9	Incongruent	zielony	green	niebieski	blue	hit	n/a
263.4223	n/a	RESPONSE	n/a	n/a	n/a	n/a	n/a	n/a	n/a	green
263.4326	1.0	ITI	n/a	n/a	n/a	n/a	n/a	n/a	n/a	n/a
264.4326	0.5	FIXCROSS	n/a	n/a	n/a	n/a	n/a	n/a	n/a	n/a
264.9326	0.6667	COLOR_NAME	10	Neutral	żółty	yellow	Neutral	Neutral	hit	n/a
265.5955	n/a	RESPONSE	n/a	n/a	n/a	n/a	n/a	n/a	n/a	yellow
265.5993	1.0	ITI	n/a	n/a	n/a	n/a	n/a	n/a	n/a	n/a
266.5992	0.5	FIXCROSS	n/a	n/a	n/a	n/a	n/a	n/a	n/a	n/a
267.0992	0.65	COLOR_NAME	11	Incongruent	czerwony	red	zielony	green	hit	n/a
267.7365	n/a	RESPONSE	n/a	n/a	n/a	n/a	n/a	n/a	n/a	red
267.7492	1.0	ITI	n/a	n/a	n/a	n/a	n/a	n/a	n/a	n/a
268.7492	0.5	FIXCROSS	n/a	n/a	n/a	n/a	n/a	n/a	n/a	n/a
269.2492	0.8667	COLOR_NAME	12	Neutral	zielony	green	Neutral	Neutral	hit	n/a
270.1014	n/a	RESPONSE	n/a	n/a	n/a	n/a	n/a	n/a	n/a	green
270.1158	1.0	ITI	n/a	n/a	n/a	n/a	n/a	n/a	n/a	n/a
271.1158	0.5	FIXCROSS	n/a	n/a	n/a	n/a	n/a	n/a	n/a	n/a
271.6158	0.7333	COLOR_NAME	13	Incongruent	niebieski	blue	zielony	green	hit	n/a
272.3385	n/a	RESPONSE	n/a	n/a	n/a	n/a	n/a	n/a	n/a	blue
272.3491	1.0	ITI	n/a	n/a	n/a	n/a	n/a	n/a	n/a	n/a
273.3491	0.5	FIXCROSS	n/a	n/a	n/a	n/a	n/a	n/a	n/a	n/a
273.8491	0.5833	COLOR_NAME	14	Incongruent	zielony	green	niebieski	blue	hit	n/a
274.4157	n/a	RESPONSE	n/a	n/a	n/a	n/a	n/a	n/a	n/a	green
274.4324	1.0	ITI	n/a	n/a	n/a	n/a	n/a	n/a	n/a	n/a
275.4324	0.5	FIXCROSS	n/a	n/a	n/a	n/a	n/a	n/a	n/a	n/a
275.9324	0.6667	COLOR_NAME	15	Neutral	zielony	green	Neutral	Neutral	hit	n/a
276.5887	n/a	RESPONSE	n/a	n/a	n/a	n/a	n/a	n/a	n/a	green
276.5991	0.9999	ITI	n/a	n/a	n/a	n/a	n/a	n/a	n/a	n/a
277.599	0.5	FIXCROSS	n/a	n/a	n/a	n/a	n/a	n/a	n/a	n/a
278.099	0.5333	COLOR_NAME	16	Neutral	niebieski	blue	Neutral	Neutral	hit	n/a
278.6182	n/a	RESPONSE	n/a	n/a	n/a	n/a	n/a	n/a	n/a	blue
278.6323	1.0	ITI	n/a	n/a	n/a	n/a	n/a	n/a	n/a	n/a
279.6323	0.5	FIXCROSS	n/a	n/a	n/a	n/a	n/a	n/a	n/a	n/a
280.1323	0.55	COLOR_NAME	17	Neutral	zielony	green	Neutral	Neutral	hit	n/a
280.6793	n/a	RESPONSE	n/a	n/a	n/a	n/a	n/a	n/a	n/a	green
280.6823	1.0	ITI	n/a	n/a	n/a	n/a	n/a	n/a	n/a	n/a
281.6823	0.5	FIXCROSS	n/a	n/a	n/a	n/a	n/a	n/a	n/a	n/a
282.1823	0.6666	COLOR_NAME	18	Incongruent	czerwony	red	żółty	yellow	hit	n/a
282.8365	n/a	RESPONSE	n/a	n/a	n/a	n/a	n/a	n/a	n/a	red
282.8489	1.0	ITI	n/a	n/a	n/a	n/a	n/a	n/a	n/a	n/a
283.8489	0.5	FIXCROSS	n/a	n/a	n/a	n/a	n/a	n/a	n/a	n/a
284.3489	0.6333	COLOR_NAME	19	Neutral	niebieski	blue	Neutral	Neutral	hit	n/a
284.9776	n/a	RESPONSE	n/a	n/a	n/a	n/a	n/a	n/a	n/a	blue
284.9822	1.0	ITI	n/a	n/a	n/a	n/a	n/a	n/a	n/a	n/a
285.9822	0.5	FIXCROSS	n/a	n/a	n/a	n/a	n/a	n/a	n/a	n/a
286.4822	0.75	COLOR_NAME	20	Incongruent	żółty	yellow	niebieski	blue	hit	n/a
287.2144	n/a	RESPONSE	n/a	n/a	n/a	n/a	n/a	n/a	n/a	yellow
287.2322	1.0	ITI	n/a	n/a	n/a	n/a	n/a	n/a	n/a	n/a
288.2322	0.5	FIXCROSS	n/a	n/a	n/a	n/a	n/a	n/a	n/a	n/a
288.7321	0.6	COLOR_NAME	21	Incongruent	zielony	green	czerwony	red	hit	n/a
289.3235	n/a	RESPONSE	n/a	n/a	n/a	n/a	n/a	n/a	n/a	green
289.3321	1.0	ITI	n/a	n/a	n/a	n/a	n/a	n/a	n/a	n/a
290.3321	0.5	FIXCROSS	n/a	n/a	n/a	n/a	n/a	n/a	n/a	n/a
290.8321	0.5833	COLOR_NAME	22	Neutral	czerwony	red	Neutral	Neutral	hit	n/a
291.4007	n/a	RESPONSE	n/a	n/a	n/a	n/a	n/a	n/a	n/a	red
291.4154	0.9999	ITI	n/a	n/a	n/a	n/a	n/a	n/a	n/a	n/a
292.4154	0.5	FIXCROSS	n/a	n/a	n/a	n/a	n/a	n/a	n/a	n/a
292.9154	0.8	COLOR_NAME	23	Incongruent	zielony	green	żółty	yellow	hit	n/a
293.7017	n/a	RESPONSE	n/a	n/a	n/a	n/a	n/a	n/a	n/a	green
293.7154	1.0	ITI	n/a	n/a	n/a	n/a	n/a	n/a	n/a	n/a
294.7154	0.5	FIXCROSS	n/a	n/a	n/a	n/a	n/a	n/a	n/a	n/a
295.2154	0.5667	COLOR_NAME	24	Incongruent	czerwony	red	żółty	yellow	hit	n/a
295.7629	n/a	RESPONSE	n/a	n/a	n/a	n/a	n/a	n/a	n/a	red
295.782	1.0	ITI	n/a	n/a	n/a	n/a	n/a	n/a	n/a	n/a
296.782	0.5	FIXCROSS	n/a	n/a	n/a	n/a	n/a	n/a	n/a	n/a
297.282	0.6167	COLOR_NAME	25	Incongruent	zielony	green	niebieski	blue	hit	n/a
297.888	n/a	RESPONSE	n/a	n/a	n/a	n/a	n/a	n/a	n/a	green
297.8986	1.0	ITI	n/a	n/a	n/a	n/a	n/a	n/a	n/a	n/a
298.8986	0.5	FIXCROSS	n/a	n/a	n/a	n/a	n/a	n/a	n/a	n/a
299.3986	0.6667	COLOR_NAME	26	Neutral	czerwony	red	Neutral	Neutral	hit	n/a
300.0612	n/a	RESPONSE	n/a	n/a	n/a	n/a	n/a	n/a	n/a	red
300.0653	1.0	ITI	n/a	n/a	n/a	n/a	n/a	n/a	n/a	n/a
301.0652	0.5	FIXCROSS	n/a	n/a	n/a	n/a	n/a	n/a	n/a	n/a
301.5652	0.7667	COLOR_NAME	27	Neutral	niebieski	blue	Neutral	Neutral	hit	n/a
302.3141	n/a	RESPONSE	n/a	n/a	n/a	n/a	n/a	n/a	n/a	blue
302.3319	1.0	ITI	n/a	n/a	n/a	n/a	n/a	n/a	n/a	n/a
303.3319	0.5	FIXCROSS	n/a	n/a	n/a	n/a	n/a	n/a	n/a	n/a
303.8319	0.5333	COLOR_NAME	28	Neutral	niebieski	blue	Neutral	Neutral	hit	n/a
304.3594	n/a	RESPONSE	n/a	n/a	n/a	n/a	n/a	n/a	n/a	blue
304.3652	1.0	ITI	n/a	n/a	n/a	n/a	n/a	n/a	n/a	n/a
305.3652	0.5	FIXCROSS	n/a	n/a	n/a	n/a	n/a	n/a	n/a	n/a
305.8652	1.35	COLOR_NAME	29	Incongruent	żółty	yellow	czerwony	red	hit	n/a
307.2036	n/a	RESPONSE	n/a	n/a	n/a	n/a	n/a	n/a	n/a	yellow
307.2151	1.0	ITI	n/a	n/a	n/a	n/a	n/a	n/a	n/a	n/a
308.2151	0.5	FIXCROSS	n/a	n/a	n/a	n/a	n/a	n/a	n/a	n/a
308.7151	0.9666	COLOR_NAME	30	Incongruent	czerwony	red	niebieski	blue	hit	n/a
309.6643	n/a	RESPONSE	n/a	n/a	n/a	n/a	n/a	n/a	n/a	red
309.6818	1.0	ITI	n/a	n/a	n/a	n/a	n/a	n/a	n/a	n/a
310.6817	0.5	FIXCROSS	n/a	n/a	n/a	n/a	n/a	n/a	n/a	n/a
311.1817	0.55	COLOR_NAME	31	Neutral	zielony	green	Neutral	Neutral	hit	n/a
311.7255	n/a	RESPONSE	n/a	n/a	n/a	n/a	n/a	n/a	n/a	green
311.7317	1.0	ITI	n/a	n/a	n/a	n/a	n/a	n/a	n/a	n/a
312.7317	0.5	FIXCROSS	n/a	n/a	n/a	n/a	n/a	n/a	n/a	n/a
313.2317	0.5667	COLOR_NAME	32	Incongruent	żółty	yellow	niebieski	blue	hit	n/a
313.7868	n/a	RESPONSE	n/a	n/a	n/a	n/a	n/a	n/a	n/a	yellow
313.7984	1.0	ITI	n/a	n/a	n/a	n/a	n/a	n/a	n/a	n/a
314.7983	0.4999	FIXCROSS	n/a	n/a	n/a	n/a	n/a	n/a	n/a	n/a
315.2982	0.5334	COLOR_NAME	33	Neutral	żółty	yellow	Neutral	Neutral	hit	n/a
315.816	n/a	RESPONSE	n/a	n/a	n/a	n/a	n/a	n/a	n/a	yellow
315.8316	1.0	ITI	n/a	n/a	n/a	n/a	n/a	n/a	n/a	n/a
316.8316	0.5	FIXCROSS	n/a	n/a	n/a	n/a	n/a	n/a	n/a	n/a
317.3316	0.7667	COLOR_NAME	34	Incongruent	zielony	green	żółty	yellow	hit	n/a
318.085	n/a	RESPONSE	n/a	n/a	n/a	n/a	n/a	n/a	n/a	green
318.0983	1.0	ITI	n/a	n/a	n/a	n/a	n/a	n/a	n/a	n/a
319.0982	0.5	FIXCROSS	n/a	n/a	n/a	n/a	n/a	n/a	n/a	n/a
319.5982	0.5833	COLOR_NAME	35	Neutral	niebieski	blue	Neutral	Neutral	hit	n/a
320.1782	n/a	RESPONSE	n/a	n/a	n/a	n/a	n/a	n/a	n/a	blue
320.1815	1.0	ITI	n/a	n/a	n/a	n/a	n/a	n/a	n/a	n/a
321.1815	0.5	FIXCROSS	n/a	n/a	n/a	n/a	n/a	n/a	n/a	n/a
321.6815	0.8666	COLOR_NAME	36	Incongruent	niebieski	blue	czerwony	red	hit	n/a
322.5431	n/a	RESPONSE	n/a	n/a	n/a	n/a	n/a	n/a	n/a	blue
322.5482	1.0	ITI	n/a	n/a	n/a	n/a	n/a	n/a	n/a	n/a
323.5482	0.5	FIXCROSS	n/a	n/a	n/a	n/a	n/a	n/a	n/a	n/a
324.0481	0.6333	COLOR_NAME	37	Neutral	zielony	green	Neutral	Neutral	hit	n/a
324.6682	n/a	RESPONSE	n/a	n/a	n/a	n/a	n/a	n/a	n/a	green
324.6815	1.0	ITI	n/a	n/a	n/a	n/a	n/a	n/a	n/a	n/a
325.6815	0.5	FIXCROSS	n/a	n/a	n/a	n/a	n/a	n/a	n/a	n/a
326.1814	0.7	COLOR_NAME	38	Incongruent	żółty	yellow	zielony	green	hit	n/a
326.8732	n/a	RESPONSE	n/a	n/a	n/a	n/a	n/a	n/a	n/a	yellow
326.8814	1.0	ITI	n/a	n/a	n/a	n/a	n/a	n/a	n/a	n/a
327.8814	0.5	FIXCROSS	n/a	n/a	n/a	n/a	n/a	n/a	n/a	n/a
328.3814	0.4167	COLOR_NAME	39	Neutral	czerwony	red	Neutral	Neutral	hit	n/a
328.7907	n/a	RESPONSE	n/a	n/a	n/a	n/a	n/a	n/a	n/a	red
328.7981	1.0	ITI	n/a	n/a	n/a	n/a	n/a	n/a	n/a	n/a
329.798	0.5	FIXCROSS	n/a	n/a	n/a	n/a	n/a	n/a	n/a	n/a
330.298	0.6	COLOR_NAME	40	Incongruent	zielony	green	żółty	yellow	hit	n/a
330.8839	n/a	RESPONSE	n/a	n/a	n/a	n/a	n/a	n/a	n/a	green
330.898	1.0	ITI	n/a	n/a	n/a	n/a	n/a	n/a	n/a	n/a
331.898	0.5	FIXCROSS	n/a	n/a	n/a	n/a	n/a	n/a	n/a	n/a
332.398	1.0333	COLOR_NAME	41	Incongruent	czerwony	red	niebieski	blue	hit	n/a
333.4245	n/a	RESPONSE	n/a	n/a	n/a	n/a	n/a	n/a	n/a	red
333.4313	1.0	ITI	n/a	n/a	n/a	n/a	n/a	n/a	n/a	n/a
334.4313	0.5	FIXCROSS	n/a	n/a	n/a	n/a	n/a	n/a	n/a	n/a
334.9313	0.7167	COLOR_NAME	42	Incongruent	czerwony	red	zielony	green	hit	n/a
335.6297	n/a	RESPONSE	n/a	n/a	n/a	n/a	n/a	n/a	n/a	red
335.6479	1.0	ITI	n/a	n/a	n/a	n/a	n/a	n/a	n/a	n/a
336.6479	0.5	FIXCROSS	n/a	n/a	n/a	n/a	n/a	n/a	n/a	n/a
337.1479	0.7333	COLOR_NAME	43	Incongruent	niebieski	blue	żółty	yellow	hit	n/a
337.8668	n/a	RESPONSE	n/a	n/a	n/a	n/a	n/a	n/a	n/a	blue
337.8812	1.0	ITI	n/a	n/a	n/a	n/a	n/a	n/a	n/a	n/a
338.8812	0.5	FIXCROSS	n/a	n/a	n/a	n/a	n/a	n/a	n/a	n/a
339.3812	0.7	COLOR_NAME	44	Incongruent	niebieski	blue	żółty	yellow	hit	n/a
340.0717	n/a	RESPONSE	n/a	n/a	n/a	n/a	n/a	n/a	n/a	blue
340.0812	1.0	ITI	n/a	n/a	n/a	n/a	n/a	n/a	n/a	n/a
341.0812	0.5	FIXCROSS	n/a	n/a	n/a	n/a	n/a	n/a	n/a	n/a
341.5811	0.6833	COLOR_NAME	45	Incongruent	czerwony	red	zielony	green	hit	n/a
342.2607	n/a	RESPONSE	n/a	n/a	n/a	n/a	n/a	n/a	n/a	red
342.2645	1.0	ITI	n/a	n/a	n/a	n/a	n/a	n/a	n/a	n/a
343.2644	0.5	FIXCROSS	n/a	n/a	n/a	n/a	n/a	n/a	n/a	n/a
343.7644	0.7	COLOR_NAME	46	Neutral	żółty	yellow	Neutral	Neutral	hit	n/a
344.4498	n/a	RESPONSE	n/a	n/a	n/a	n/a	n/a	n/a	n/a	yellow
344.4644	1.0	ITI	n/a	n/a	n/a	n/a	n/a	n/a	n/a	n/a
345.4644	0.5	FIXCROSS	n/a	n/a	n/a	n/a	n/a	n/a	n/a	n/a
345.9644	0.5166	COLOR_NAME	47	Neutral	zielony	green	Neutral	Neutral	hit	n/a
346.463	n/a	RESPONSE	n/a	n/a	n/a	n/a	n/a	n/a	n/a	green
346.481	1.0	ITI	n/a	n/a	n/a	n/a	n/a	n/a	n/a	n/a
347.481	0.5	FIXCROSS	n/a	n/a	n/a	n/a	n/a	n/a	n/a	n/a
347.981	0.6	COLOR_NAME	48	Neutral	zielony	green	Neutral	Neutral	hit	n/a
348.5723	n/a	RESPONSE	n/a	n/a	n/a	n/a	n/a	n/a	n/a	green
348.581	1.0	ITI	n/a	n/a	n/a	n/a	n/a	n/a	n/a	n/a
349.581	0.5	FIXCROSS	n/a	n/a	n/a	n/a	n/a	n/a	n/a	n/a
350.081	0.6833	COLOR_NAME	49	Incongruent	niebieski	blue	zielony	green	hit	n/a
350.7454	n/a	RESPONSE	n/a	n/a	n/a	n/a	n/a	n/a	n/a	blue
350.7643	1.0	ITI	n/a	n/a	n/a	n/a	n/a	n/a	n/a	n/a
351.7643	0.5	FIXCROSS	n/a	n/a	n/a	n/a	n/a	n/a	n/a	n/a
352.2643	0.5	COLOR_NAME	50	Neutral	niebieski	blue	Neutral	Neutral	hit	n/a
352.7586	n/a	RESPONSE	n/a	n/a	n/a	n/a	n/a	n/a	n/a	blue
352.7643	1.0	ITI	n/a	n/a	n/a	n/a	n/a	n/a	n/a	n/a
353.7642	0.5	FIXCROSS	n/a	n/a	n/a	n/a	n/a	n/a	n/a	n/a
354.2642	0.8	COLOR_NAME	51	Incongruent	czerwony	red	niebieski	blue	hit	n/a
355.0596	n/a	RESPONSE	n/a	n/a	n/a	n/a	n/a	n/a	n/a	red
355.0642	1.0	ITI	n/a	n/a	n/a	n/a	n/a	n/a	n/a	n/a
356.0642	0.5	FIXCROSS	n/a	n/a	n/a	n/a	n/a	n/a	n/a	n/a
356.5642	0.7333	COLOR_NAME	52	Neutral	żółty	yellow	Neutral	Neutral	hit	n/a
357.2806	n/a	RESPONSE	n/a	n/a	n/a	n/a	n/a	n/a	n/a	yellow
357.2975	1.0	ITI	n/a	n/a	n/a	n/a	n/a	n/a	n/a	n/a
358.2975	0.5	FIXCROSS	n/a	n/a	n/a	n/a	n/a	n/a	n/a	n/a
358.7975	0.8666	COLOR_NAME	53	Incongruent	zielony	green	czerwony	red	hit	n/a
359.6453	n/a	RESPONSE	n/a	n/a	n/a	n/a	n/a	n/a	n/a	green
359.6641	1.0	ITI	n/a	n/a	n/a	n/a	n/a	n/a	n/a	n/a
360.6641	0.5	FIXCROSS	n/a	n/a	n/a	n/a	n/a	n/a	n/a	n/a
361.1641	0.6833	COLOR_NAME	54	Neutral	żółty	yellow	Neutral	Neutral	hit	n/a
361.8341	n/a	RESPONSE	n/a	n/a	n/a	n/a	n/a	n/a	n/a	yellow
361.8474	1.0	ITI	n/a	n/a	n/a	n/a	n/a	n/a	n/a	n/a
362.8474	0.5	FIXCROSS	n/a	n/a	n/a	n/a	n/a	n/a	n/a	n/a
363.3474	0.6166	COLOR_NAME	55	Neutral	czerwony	red	Neutral	Neutral	hit	n/a
363.9591	n/a	RESPONSE	n/a	n/a	n/a	n/a	n/a	n/a	n/a	red
363.9641	1.0	ITI	n/a	n/a	n/a	n/a	n/a	n/a	n/a	n/a
364.964	0.5	FIXCROSS	n/a	n/a	n/a	n/a	n/a	n/a	n/a	n/a
365.464	0.4166	COLOR_NAME	56	Neutral	czerwony	red	Neutral	Neutral	hit	n/a
365.8766	n/a	RESPONSE	n/a	n/a	n/a	n/a	n/a	n/a	n/a	red
365.8807	1.0	ITI	n/a	n/a	n/a	n/a	n/a	n/a	n/a	n/a
366.8807	0.5	FIXCROSS	n/a	n/a	n/a	n/a	n/a	n/a	n/a	n/a
367.3807	0.45	COLOR_NAME	57	Neutral	czerwony	red	Neutral	Neutral	hit	n/a
367.826	n/a	RESPONSE	n/a	n/a	n/a	n/a	n/a	n/a	n/a	red
367.8306	1.0	ITI	n/a	n/a	n/a	n/a	n/a	n/a	n/a	n/a
368.8306	0.5	FIXCROSS	n/a	n/a	n/a	n/a	n/a	n/a	n/a	n/a
369.3306	0.7	COLOR_NAME	58	Incongruent	niebieski	blue	żółty	yellow	hit	n/a
370.0151	n/a	RESPONSE	n/a	n/a	n/a	n/a	n/a	n/a	n/a	blue
370.0306	1.0	ITI	n/a	n/a	n/a	n/a	n/a	n/a	n/a	n/a
371.0306	0.5	FIXCROSS	n/a	n/a	n/a	n/a	n/a	n/a	n/a	n/a
371.5306	0.6833	COLOR_NAME	59	Incongruent	czerwony	red	żółty	yellow	hit	n/a
372.2042	n/a	RESPONSE	n/a	n/a	n/a	n/a	n/a	n/a	n/a	red
372.2139	1.0	ITI	n/a	n/a	n/a	n/a	n/a	n/a	n/a	n/a
373.2139	0.5	FIXCROSS	n/a	n/a	n/a	n/a	n/a	n/a	n/a	n/a
373.7139	0.5	COLOR_NAME	60	Neutral	niebieski	blue	Neutral	Neutral	hit	n/a
374.2014	n/a	RESPONSE	n/a	n/a	n/a	n/a	n/a	n/a	n/a	blue
374.2139	1.0	ITI	n/a	n/a	n/a	n/a	n/a	n/a	n/a	n/a
375.2138	0.5	FIXCROSS	n/a	n/a	n/a	n/a	n/a	n/a	n/a	n/a
375.7138	0.6	COLOR_NAME	61	Incongruent	niebieski	blue	czerwony	red	hit	n/a
376.3106	n/a	RESPONSE	n/a	n/a	n/a	n/a	n/a	n/a	n/a	blue
376.3138	1.0	ITI	n/a	n/a	n/a	n/a	n/a	n/a	n/a	n/a
377.3138	0.5	FIXCROSS	n/a	n/a	n/a	n/a	n/a	n/a	n/a	n/a
377.8138	0.6833	COLOR_NAME	62	Incongruent	żółty	yellow	zielony	green	hit	n/a
378.4838	n/a	RESPONSE	n/a	n/a	n/a	n/a	n/a	n/a	n/a	yellow
378.4971	1.0	ITI	n/a	n/a	n/a	n/a	n/a	n/a	n/a	n/a
379.4971	0.5	FIXCROSS	n/a	n/a	n/a	n/a	n/a	n/a	n/a	n/a
379.9971	0.7833	COLOR_NAME	63	Neutral	zielony	green	Neutral	Neutral	hit	n/a
380.7686	n/a	RESPONSE	n/a	n/a	n/a	n/a	n/a	n/a	n/a	green
380.7804	1.0	ITI	n/a	n/a	n/a	n/a	n/a	n/a	n/a	n/a
381.7804	0.5	FIXCROSS	n/a	n/a	n/a	n/a	n/a	n/a	n/a	n/a
382.2804	0.6167	COLOR_NAME	64	Neutral	czerwony	red	Neutral	Neutral	hit	n/a
382.8938	n/a	RESPONSE	n/a	n/a	n/a	n/a	n/a	n/a	n/a	red
382.897	1.0	ITI	n/a	n/a	n/a	n/a	n/a	n/a	n/a	n/a
383.897	0.5	FIXCROSS	n/a	n/a	n/a	n/a	n/a	n/a	n/a	n/a
384.397	0.5167	COLOR_NAME	65	Neutral	czerwony	red	Neutral	Neutral	hit	n/a
384.9071	n/a	RESPONSE	n/a	n/a	n/a	n/a	n/a	n/a	n/a	red
384.9137	1.0	ITI	n/a	n/a	n/a	n/a	n/a	n/a	n/a	n/a
385.9136	0.5	FIXCROSS	n/a	n/a	n/a	n/a	n/a	n/a	n/a	n/a
386.4136	0.6667	COLOR_NAME	66	Neutral	żółty	yellow	Neutral	Neutral	hit	n/a
387.0641	n/a	RESPONSE	n/a	n/a	n/a	n/a	n/a	n/a	n/a	yellow
387.0803	1.0	ITI	n/a	n/a	n/a	n/a	n/a	n/a	n/a	n/a
388.0803	0.5	FIXCROSS	n/a	n/a	n/a	n/a	n/a	n/a	n/a	n/a
388.5802	0.5833	COLOR_NAME	67	Neutral	niebieski	blue	Neutral	Neutral	hit	n/a
389.1573	n/a	RESPONSE	n/a	n/a	n/a	n/a	n/a	n/a	n/a	blue
389.1636	1.0	ITI	n/a	n/a	n/a	n/a	n/a	n/a	n/a	n/a
390.1636	0.5	FIXCROSS	n/a	n/a	n/a	n/a	n/a	n/a	n/a	n/a
390.6635	0.7833	COLOR_NAME	68	Incongruent	żółty	yellow	zielony	green	hit	n/a
391.4422	n/a	RESPONSE	n/a	n/a	n/a	n/a	n/a	n/a	n/a	yellow
391.4469	1.0	ITI	n/a	n/a	n/a	n/a	n/a	n/a	n/a	n/a
392.4469	0.5	FIXCROSS	n/a	n/a	n/a	n/a	n/a	n/a	n/a	n/a
392.9468	0.8	COLOR_NAME	69	Neutral	czerwony	red	Neutral	Neutral	hit	n/a
393.743	n/a	RESPONSE	n/a	n/a	n/a	n/a	n/a	n/a	n/a	red
393.7468	1.0	ITI	n/a	n/a	n/a	n/a	n/a	n/a	n/a	n/a
394.7468	0.5	FIXCROSS	n/a	n/a	n/a	n/a	n/a	n/a	n/a	n/a
395.2468	0.6167	COLOR_NAME	70	Incongruent	żółty	yellow	czerwony	red	hit	n/a
395.8522	n/a	RESPONSE	n/a	n/a	n/a	n/a	n/a	n/a	n/a	yellow
395.8634	1.0	ITI	n/a	n/a	n/a	n/a	n/a	n/a	n/a	n/a
396.8634	0.5	FIXCROSS	n/a	n/a	n/a	n/a	n/a	n/a	n/a	n/a
397.3634	0.6333	COLOR_NAME	71	Incongruent	niebieski	blue	czerwony	red	hit	n/a
397.9934	n/a	RESPONSE	n/a	n/a	n/a	n/a	n/a	n/a	n/a	blue
397.9967	1.0	ITI	n/a	n/a	n/a	n/a	n/a	n/a	n/a	n/a
398.9967	0.5	FIXCROSS	n/a	n/a	n/a	n/a	n/a	n/a	n/a	n/a
399.4967	0.75	COLOR_NAME	72	Incongruent	zielony	green	czerwony	red	hit	n/a
400.2304	n/a	RESPONSE	n/a	n/a	n/a	n/a	n/a	n/a	n/a	green
400.2467	1.0	ITI	n/a	n/a	n/a	n/a	n/a	n/a	n/a	n/a
413.1729	n/a	RESPONSE	n/a	n/a	n/a	n/a	n/a	n/a	n/a	n/a
