onset	duration	trial_type	trial_number	stroop_condition	stim_text(PL)	stim_text(eng)	stim_color(PL)	stim_color(eng)	response_type	response_color
0.0	n/a	RESPONSE	n/a	n/a	n/a	n/a	n/a	n/a	n/a	n/a
0.0685	1.0333	ITI	n/a	n/a	n/a	n/a	n/a	n/a	n/a	n/a
1.1018	0.5167	FIXCROSS	n/a	n/a	n/a	n/a	n/a	n/a	n/a	n/a
1.6185	1.6667	T_INK	1	Incongruent	niebieski	blue	zielony	green	incorrect	n/a
3.2584	n/a	RESPONSE	n/a	n/a	n/a	n/a	n/a	n/a	n/a	blue
3.2852	0.5167	FEEDBACK	n/a	n/a	n/a	n/a	n/a	n/a	n/a	n/a
3.8018	1.0167	ITI	n/a	n/a	n/a	n/a	n/a	n/a	n/a	n/a
4.8185	0.5167	FIXCROSS	n/a	n/a	n/a	n/a	n/a	n/a	n/a	n/a
5.3352	1.9834	T_INK	2	Incongruent	zielony	green	żółty	yellow	hit	n/a
7.2836	n/a	RESPONSE	n/a	n/a	n/a	n/a	n/a	n/a	n/a	yellow
7.3185	0.5167	FEEDBACK	n/a	n/a	n/a	n/a	n/a	n/a	n/a	n/a
7.8352	1.0167	ITI	n/a	n/a	n/a	n/a	n/a	n/a	n/a	n/a
8.8519	0.5167	FIXCROSS	n/a	n/a	n/a	n/a	n/a	n/a	n/a	n/a
9.3685	1.7833	T_INK	3	Neutral	xxxxxxx	xxxxxxx	żółty	yellow	hit	n/a
11.1172	n/a	RESPONSE	n/a	n/a	n/a	n/a	n/a	n/a	n/a	yellow
11.1519	0.5167	FEEDBACK	n/a	n/a	n/a	n/a	n/a	n/a	n/a	n/a
11.6686	1.0167	ITI	n/a	n/a	n/a	n/a	n/a	n/a	n/a	n/a
12.6852	0.5167	FIXCROSS	n/a	n/a	n/a	n/a	n/a	n/a	n/a	n/a
13.2019	1.35	T_INK	4	Incongruent	żółty	yellow	niebieski	blue	hit	n/a
14.5194	n/a	RESPONSE	n/a	n/a	n/a	n/a	n/a	n/a	n/a	blue
14.5519	0.5167	FEEDBACK	n/a	n/a	n/a	n/a	n/a	n/a	n/a	n/a
15.0686	1.0167	ITI	n/a	n/a	n/a	n/a	n/a	n/a	n/a	n/a
16.0853	0.5167	FIXCROSS	n/a	n/a	n/a	n/a	n/a	n/a	n/a	n/a
16.6019	1.1167	T_INK	5	Incongruent	zielony	green	niebieski	blue	incorrect	n/a
17.698	n/a	RESPONSE	n/a	n/a	n/a	n/a	n/a	n/a	n/a	green
17.7186	0.5167	FEEDBACK	n/a	n/a	n/a	n/a	n/a	n/a	n/a	n/a
18.2353	1.0167	ITI	n/a	n/a	n/a	n/a	n/a	n/a	n/a	n/a
19.252	0.5167	FIXCROSS	n/a	n/a	n/a	n/a	n/a	n/a	n/a	n/a
19.7686	1.9	T_INK	6	Neutral	xxxxx	xxxxx	czerwony	red	hit	n/a
21.6433	n/a	RESPONSE	n/a	n/a	n/a	n/a	n/a	n/a	n/a	red
21.6686	0.5167	FEEDBACK	n/a	n/a	n/a	n/a	n/a	n/a	n/a	n/a
22.1853	1.0167	ITI	n/a	n/a	n/a	n/a	n/a	n/a	n/a	n/a
23.202	0.5167	FIXCROSS	n/a	n/a	n/a	n/a	n/a	n/a	n/a	n/a
23.7187	1.35	T_INK	7	Neutral	xxxxxxxx	xxxxxxxx	niebieski	blue	hit	n/a
25.0456	n/a	RESPONSE	n/a	n/a	n/a	n/a	n/a	n/a	n/a	blue
25.0687	0.5167	FEEDBACK	n/a	n/a	n/a	n/a	n/a	n/a	n/a	n/a
25.5853	1.0167	ITI	n/a	n/a	n/a	n/a	n/a	n/a	n/a	n/a
26.602	0.5167	FIXCROSS	n/a	n/a	n/a	n/a	n/a	n/a	n/a	n/a
27.1187	1.8167	T_INK	8	Incongruent	czerwony	red	niebieski	blue	hit	n/a
28.9111	n/a	RESPONSE	n/a	n/a	n/a	n/a	n/a	n/a	n/a	blue
28.9354	0.5167	FEEDBACK	n/a	n/a	n/a	n/a	n/a	n/a	n/a	n/a
29.452	1.0167	ITI	n/a	n/a	n/a	n/a	n/a	n/a	n/a	n/a
30.4687	0.5167	FIXCROSS	n/a	n/a	n/a	n/a	n/a	n/a	n/a	n/a
30.9854	1.2167	T_INK	9	Incongruent	zielony	green	czerwony	red	hit	n/a
32.1695	n/a	RESPONSE	n/a	n/a	n/a	n/a	n/a	n/a	n/a	red
32.2021	0.5167	FEEDBACK	n/a	n/a	n/a	n/a	n/a	n/a	n/a	n/a
32.7187	1.0167	ITI	n/a	n/a	n/a	n/a	n/a	n/a	n/a	n/a
33.7354	0.5167	FIXCROSS	n/a	n/a	n/a	n/a	n/a	n/a	n/a	n/a
34.2521	1.25	T_INK	10	Neutral	xxxxxxxxx	xxxxxxxxx	zielony	green	hit	n/a
35.4759	n/a	RESPONSE	n/a	n/a	n/a	n/a	n/a	n/a	n/a	green
35.5021	0.5167	FEEDBACK	n/a	n/a	n/a	n/a	n/a	n/a	n/a	n/a
36.0188	1.0167	ITI	n/a	n/a	n/a	n/a	n/a	n/a	n/a	n/a
37.0354	0.5167	FIXCROSS	n/a	n/a	n/a	n/a	n/a	n/a	n/a	n/a
37.5521	0.8	T_INK	11	Neutral	xxxxxxx	xxxxxxx	niebieski	blue	hit	n/a
38.3191	n/a	RESPONSE	n/a	n/a	n/a	n/a	n/a	n/a	n/a	blue
38.3521	0.5167	FEEDBACK	n/a	n/a	n/a	n/a	n/a	n/a	n/a	n/a
38.8688	1.0167	ITI	n/a	n/a	n/a	n/a	n/a	n/a	n/a	n/a
39.8855	0.5167	FIXCROSS	n/a	n/a	n/a	n/a	n/a	n/a	n/a	n/a
40.4021	0.85	T_INK	12	Incongruent	niebieski	blue	żółty	yellow	hit	n/a
41.2262	n/a	RESPONSE	n/a	n/a	n/a	n/a	n/a	n/a	n/a	yellow
41.2521	0.5167	FEEDBACK	n/a	n/a	n/a	n/a	n/a	n/a	n/a	n/a
41.7688	1.0334	ITI	n/a	n/a	n/a	n/a	n/a	n/a	n/a	n/a
47.5516	n/a	RESPONSE	n/a	n/a	n/a	n/a	n/a	n/a	n/a	n/a
47.6189	1.0167	ITI	n/a	n/a	n/a	n/a	n/a	n/a	n/a	n/a
48.6355	0.5167	FIXCROSS	n/a	n/a	n/a	n/a	n/a	n/a	n/a	n/a
49.1522	1.1	INK	1	Incongruent	zielony	green	niebieski	blue	incorrect	n/a
50.2191	n/a	RESPONSE	n/a	n/a	n/a	n/a	n/a	n/a	n/a	green
50.2522	1.0167	ITI	n/a	n/a	n/a	n/a	n/a	n/a	n/a	n/a
51.2689	0.5167	FIXCROSS	n/a	n/a	n/a	n/a	n/a	n/a	n/a	n/a
51.7856	0.7333	INK	2	Incongruent	czerwony	red	zielony	green	incorrect	n/a
52.4873	n/a	RESPONSE	n/a	n/a	n/a	n/a	n/a	n/a	n/a	blue
52.5189	1.0167	ITI	n/a	n/a	n/a	n/a	n/a	n/a	n/a	n/a
53.5356	0.5167	FIXCROSS	n/a	n/a	n/a	n/a	n/a	n/a	n/a	n/a
54.0522	1.45	INK	3	Incongruent	żółty	yellow	niebieski	blue	hit	n/a
55.4743	n/a	RESPONSE	n/a	n/a	n/a	n/a	n/a	n/a	n/a	blue
55.5023	1.0167	ITI	n/a	n/a	n/a	n/a	n/a	n/a	n/a	n/a
56.5189	0.5167	FIXCROSS	n/a	n/a	n/a	n/a	n/a	n/a	n/a	n/a
57.0356	0.9167	INK	4	Neutral	xxxxxxx	xxxxxxx	niebieski	blue	hit	n/a
57.9341	n/a	RESPONSE	n/a	n/a	n/a	n/a	n/a	n/a	n/a	blue
57.9523	1.0167	ITI	n/a	n/a	n/a	n/a	n/a	n/a	n/a	n/a
58.9689	0.5167	FIXCROSS	n/a	n/a	n/a	n/a	n/a	n/a	n/a	n/a
59.4856	0.9667	INK	5	Incongruent	żółty	yellow	czerwony	red	hit	n/a
60.4259	n/a	RESPONSE	n/a	n/a	n/a	n/a	n/a	n/a	n/a	red
60.4523	1.0167	ITI	n/a	n/a	n/a	n/a	n/a	n/a	n/a	n/a
61.469	0.5167	FIXCROSS	n/a	n/a	n/a	n/a	n/a	n/a	n/a	n/a
61.9856	0.8167	INK	6	Incongruent	niebieski	blue	żółty	yellow	hit	n/a
62.7739	n/a	RESPONSE	n/a	n/a	n/a	n/a	n/a	n/a	n/a	yellow
62.8023	1.0167	ITI	n/a	n/a	n/a	n/a	n/a	n/a	n/a	n/a
63.819	0.5167	FIXCROSS	n/a	n/a	n/a	n/a	n/a	n/a	n/a	n/a
64.3357	0.6667	INK	7	Neutral	xxxxxxxxx	xxxxxxxxx	żółty	yellow	hit	n/a
64.9783	n/a	RESPONSE	n/a	n/a	n/a	n/a	n/a	n/a	n/a	yellow
65.0023	1.0167	ITI	n/a	n/a	n/a	n/a	n/a	n/a	n/a	n/a
66.019	0.5167	FIXCROSS	n/a	n/a	n/a	n/a	n/a	n/a	n/a	n/a
66.5357	0.6167	INK	8	Neutral	xxxxxxx	xxxxxxx	żółty	yellow	hit	n/a
67.1187	n/a	RESPONSE	n/a	n/a	n/a	n/a	n/a	n/a	n/a	yellow
67.1523	1.0167	ITI	n/a	n/a	n/a	n/a	n/a	n/a	n/a	n/a
68.169	0.5167	FIXCROSS	n/a	n/a	n/a	n/a	n/a	n/a	n/a	n/a
68.6857	0.4667	INK	9	Incongruent	czerwony	red	żółty	yellow	hit	n/a
69.1313	n/a	RESPONSE	n/a	n/a	n/a	n/a	n/a	n/a	n/a	yellow
69.1524	1.0166	ITI	n/a	n/a	n/a	n/a	n/a	n/a	n/a	n/a
70.169	0.5167	FIXCROSS	n/a	n/a	n/a	n/a	n/a	n/a	n/a	n/a
70.6857	0.9833	INK	10	Neutral	xxxxxxxx	xxxxxxxx	zielony	green	hit	n/a
71.639	n/a	RESPONSE	n/a	n/a	n/a	n/a	n/a	n/a	n/a	green
71.669	1.0167	ITI	n/a	n/a	n/a	n/a	n/a	n/a	n/a	n/a
72.6857	0.5167	FIXCROSS	n/a	n/a	n/a	n/a	n/a	n/a	n/a	n/a
73.2024	0.5667	INK	11	Incongruent	żółty	yellow	zielony	green	hit	n/a
73.7475	n/a	RESPONSE	n/a	n/a	n/a	n/a	n/a	n/a	n/a	green
73.7691	1.0167	ITI	n/a	n/a	n/a	n/a	n/a	n/a	n/a	n/a
74.7857	0.5167	FIXCROSS	n/a	n/a	n/a	n/a	n/a	n/a	n/a	n/a
75.3024	0.6833	INK	12	Incongruent	żółty	yellow	niebieski	blue	hit	n/a
75.9677	n/a	RESPONSE	n/a	n/a	n/a	n/a	n/a	n/a	n/a	blue
75.9858	1.0167	ITI	n/a	n/a	n/a	n/a	n/a	n/a	n/a	n/a
77.0024	0.5167	FIXCROSS	n/a	n/a	n/a	n/a	n/a	n/a	n/a	n/a
77.5191	0.6667	INK	13	Neutral	xxxxx	xxxxx	zielony	green	hit	n/a
78.156	n/a	RESPONSE	n/a	n/a	n/a	n/a	n/a	n/a	n/a	green
78.1858	1.0167	ITI	n/a	n/a	n/a	n/a	n/a	n/a	n/a	n/a
79.2024	0.5167	FIXCROSS	n/a	n/a	n/a	n/a	n/a	n/a	n/a	n/a
79.7191	0.6334	INK	14	Neutral	xxxxxxx	xxxxxxx	żółty	yellow	hit	n/a
80.3282	n/a	RESPONSE	n/a	n/a	n/a	n/a	n/a	n/a	n/a	yellow
80.3525	1.0167	ITI	n/a	n/a	n/a	n/a	n/a	n/a	n/a	n/a
81.3691	0.5167	FIXCROSS	n/a	n/a	n/a	n/a	n/a	n/a	n/a	n/a
81.8858	0.6	INK	15	Incongruent	zielony	green	czerwony	red	hit	n/a
82.4527	n/a	RESPONSE	n/a	n/a	n/a	n/a	n/a	n/a	n/a	red
82.4858	1.0167	ITI	n/a	n/a	n/a	n/a	n/a	n/a	n/a	n/a
83.5025	0.5167	FIXCROSS	n/a	n/a	n/a	n/a	n/a	n/a	n/a	n/a
84.0191	0.6333	INK	16	Incongruent	czerwony	red	niebieski	blue	hit	n/a
84.6251	n/a	RESPONSE	n/a	n/a	n/a	n/a	n/a	n/a	n/a	blue
84.6525	1.0167	ITI	n/a	n/a	n/a	n/a	n/a	n/a	n/a	n/a
85.6692	0.5167	FIXCROSS	n/a	n/a	n/a	n/a	n/a	n/a	n/a	n/a
86.1858	0.6667	INK	17	Incongruent	zielony	green	czerwony	red	hit	n/a
86.8293	n/a	RESPONSE	n/a	n/a	n/a	n/a	n/a	n/a	n/a	red
86.8525	1.0167	ITI	n/a	n/a	n/a	n/a	n/a	n/a	n/a	n/a
87.8692	0.5167	FIXCROSS	n/a	n/a	n/a	n/a	n/a	n/a	n/a	n/a
88.3858	0.6167	INK	18	Incongruent	czerwony	red	zielony	green	hit	n/a
88.9698	n/a	RESPONSE	n/a	n/a	n/a	n/a	n/a	n/a	n/a	green
89.0025	1.0167	ITI	n/a	n/a	n/a	n/a	n/a	n/a	n/a	n/a
90.0192	0.5167	FIXCROSS	n/a	n/a	n/a	n/a	n/a	n/a	n/a	n/a
90.5359	0.7	INK	19	Incongruent	zielony	green	niebieski	blue	hit	n/a
91.206	n/a	RESPONSE	n/a	n/a	n/a	n/a	n/a	n/a	n/a	blue
91.2359	1.0167	ITI	n/a	n/a	n/a	n/a	n/a	n/a	n/a	n/a
92.2525	0.5167	FIXCROSS	n/a	n/a	n/a	n/a	n/a	n/a	n/a	n/a
92.7692	0.4667	INK	20	Neutral	xxxxxxx	xxxxxxx	żółty	yellow	hit	n/a
93.2185	n/a	RESPONSE	n/a	n/a	n/a	n/a	n/a	n/a	n/a	yellow
93.2359	1.0167	ITI	n/a	n/a	n/a	n/a	n/a	n/a	n/a	n/a
94.2525	0.5167	FIXCROSS	n/a	n/a	n/a	n/a	n/a	n/a	n/a	n/a
94.7692	0.6667	INK	21	Neutral	xxxxxxx	xxxxxxx	niebieski	blue	hit	n/a
95.407	n/a	RESPONSE	n/a	n/a	n/a	n/a	n/a	n/a	n/a	blue
95.4359	1.0167	ITI	n/a	n/a	n/a	n/a	n/a	n/a	n/a	n/a
96.4526	0.5167	FIXCROSS	n/a	n/a	n/a	n/a	n/a	n/a	n/a	n/a
96.9693	0.7833	INK	22	Neutral	xxxxxxxxx	xxxxxxxxx	zielony	green	hit	n/a
97.7229	n/a	RESPONSE	n/a	n/a	n/a	n/a	n/a	n/a	n/a	green
97.7526	1.0167	ITI	n/a	n/a	n/a	n/a	n/a	n/a	n/a	n/a
98.7693	0.5167	FIXCROSS	n/a	n/a	n/a	n/a	n/a	n/a	n/a	n/a
99.2859	0.6	INK	23	Neutral	xxxxx	xxxxx	niebieski	blue	hit	n/a
99.8633	n/a	RESPONSE	n/a	n/a	n/a	n/a	n/a	n/a	n/a	blue
99.8859	1.0167	ITI	n/a	n/a	n/a	n/a	n/a	n/a	n/a	n/a
100.9026	0.5167	FIXCROSS	n/a	n/a	n/a	n/a	n/a	n/a	n/a	n/a
101.4193	0.5833	INK	24	Incongruent	niebieski	blue	czerwony	red	hit	n/a
101.9719	n/a	RESPONSE	n/a	n/a	n/a	n/a	n/a	n/a	n/a	red
102.0026	1.0167	ITI	n/a	n/a	n/a	n/a	n/a	n/a	n/a	n/a
103.0193	0.5167	FIXCROSS	n/a	n/a	n/a	n/a	n/a	n/a	n/a	n/a
103.536	0.8	INK	25	Incongruent	czerwony	red	zielony	green	hit	n/a
104.3039	n/a	RESPONSE	n/a	n/a	n/a	n/a	n/a	n/a	n/a	green
104.336	1.0167	ITI	n/a	n/a	n/a	n/a	n/a	n/a	n/a	n/a
105.3527	0.5167	FIXCROSS	n/a	n/a	n/a	n/a	n/a	n/a	n/a	n/a
105.8693	0.4667	INK	26	Neutral	xxxxxxxx	xxxxxxxx	niebieski	blue	hit	n/a
106.3165	n/a	RESPONSE	n/a	n/a	n/a	n/a	n/a	n/a	n/a	blue
106.336	1.0167	ITI	n/a	n/a	n/a	n/a	n/a	n/a	n/a	n/a
107.3527	0.5167	FIXCROSS	n/a	n/a	n/a	n/a	n/a	n/a	n/a	n/a
107.8693	0.7667	INK	27	Neutral	xxxxxxxx	xxxxxxxx	zielony	green	hit	n/a
108.6166	n/a	RESPONSE	n/a	n/a	n/a	n/a	n/a	n/a	n/a	green
108.636	1.0167	ITI	n/a	n/a	n/a	n/a	n/a	n/a	n/a	n/a
109.6527	0.5167	FIXCROSS	n/a	n/a	n/a	n/a	n/a	n/a	n/a	n/a
110.1694	0.8333	INK	28	Neutral	xxxxx	xxxxx	niebieski	blue	hit	n/a
110.9805	n/a	RESPONSE	n/a	n/a	n/a	n/a	n/a	n/a	n/a	blue
111.0027	1.0167	ITI	n/a	n/a	n/a	n/a	n/a	n/a	n/a	n/a
112.0194	0.5167	FIXCROSS	n/a	n/a	n/a	n/a	n/a	n/a	n/a	n/a
112.536	0.55	INK	29	Neutral	xxxxxxxxx	xxxxxxxxx	żółty	yellow	hit	n/a
113.057	n/a	RESPONSE	n/a	n/a	n/a	n/a	n/a	n/a	n/a	yellow
113.086	1.0167	ITI	n/a	n/a	n/a	n/a	n/a	n/a	n/a	n/a
114.1027	0.5167	FIXCROSS	n/a	n/a	n/a	n/a	n/a	n/a	n/a	n/a
114.6194	0.75	INK	30	Neutral	xxxxx	xxxxx	niebieski	blue	hit	n/a
115.3412	n/a	RESPONSE	n/a	n/a	n/a	n/a	n/a	n/a	n/a	blue
115.3694	1.0167	ITI	n/a	n/a	n/a	n/a	n/a	n/a	n/a	n/a
116.3861	0.5167	FIXCROSS	n/a	n/a	n/a	n/a	n/a	n/a	n/a	n/a
116.9027	0.65	INK	31	Incongruent	czerwony	red	niebieski	blue	hit	n/a
117.5295	n/a	RESPONSE	n/a	n/a	n/a	n/a	n/a	n/a	n/a	blue
117.5528	1.0167	ITI	n/a	n/a	n/a	n/a	n/a	n/a	n/a	n/a
118.5694	0.5167	FIXCROSS	n/a	n/a	n/a	n/a	n/a	n/a	n/a	n/a
119.0861	0.6833	INK	32	Incongruent	zielony	green	żółty	yellow	hit	n/a
119.7497	n/a	RESPONSE	n/a	n/a	n/a	n/a	n/a	n/a	n/a	yellow
119.7694	1.0167	ITI	n/a	n/a	n/a	n/a	n/a	n/a	n/a	n/a
120.7861	0.5167	FIXCROSS	n/a	n/a	n/a	n/a	n/a	n/a	n/a	n/a
121.3028	0.7333	INK	33	Incongruent	niebieski	blue	zielony	green	hit	n/a
122.0179	n/a	RESPONSE	n/a	n/a	n/a	n/a	n/a	n/a	n/a	green
122.0361	1.0167	ITI	n/a	n/a	n/a	n/a	n/a	n/a	n/a	n/a
123.0528	0.5167	FIXCROSS	n/a	n/a	n/a	n/a	n/a	n/a	n/a	n/a
123.5695	0.5833	INK	34	Incongruent	czerwony	red	żółty	yellow	hit	n/a
124.1264	n/a	RESPONSE	n/a	n/a	n/a	n/a	n/a	n/a	n/a	yellow
124.1528	1.0167	ITI	n/a	n/a	n/a	n/a	n/a	n/a	n/a	n/a
125.1695	0.5167	FIXCROSS	n/a	n/a	n/a	n/a	n/a	n/a	n/a	n/a
125.6861	0.5667	INK	35	Neutral	xxxxxxxxx	xxxxxxxxx	czerwony	red	hit	n/a
126.2347	n/a	RESPONSE	n/a	n/a	n/a	n/a	n/a	n/a	n/a	red
126.2528	1.0167	ITI	n/a	n/a	n/a	n/a	n/a	n/a	n/a	n/a
127.2695	0.5167	FIXCROSS	n/a	n/a	n/a	n/a	n/a	n/a	n/a	n/a
127.7862	0.95	INK	36	Neutral	xxxxxxx	xxxxxxx	czerwony	red	hit	n/a
128.7106	n/a	RESPONSE	n/a	n/a	n/a	n/a	n/a	n/a	n/a	red
128.7362	1.0167	ITI	n/a	n/a	n/a	n/a	n/a	n/a	n/a	n/a
129.7528	0.5167	FIXCROSS	n/a	n/a	n/a	n/a	n/a	n/a	n/a	n/a
130.2695	0.5833	INK	37	Neutral	xxxxxxxxx	xxxxxxxxx	żółty	yellow	hit	n/a
130.8191	n/a	RESPONSE	n/a	n/a	n/a	n/a	n/a	n/a	n/a	yellow
130.8529	1.0167	ITI	n/a	n/a	n/a	n/a	n/a	n/a	n/a	n/a
131.8695	0.5167	FIXCROSS	n/a	n/a	n/a	n/a	n/a	n/a	n/a	n/a
132.3862	0.9333	INK	38	Incongruent	żółty	yellow	zielony	green	hit	n/a
133.2948	n/a	RESPONSE	n/a	n/a	n/a	n/a	n/a	n/a	n/a	green
133.3195	1.0167	ITI	n/a	n/a	n/a	n/a	n/a	n/a	n/a	n/a
134.3362	0.5167	FIXCROSS	n/a	n/a	n/a	n/a	n/a	n/a	n/a	n/a
134.8529	0.75	INK	39	Incongruent	czerwony	red	żółty	yellow	hit	n/a
135.579	n/a	RESPONSE	n/a	n/a	n/a	n/a	n/a	n/a	n/a	yellow
135.6029	1.0167	ITI	n/a	n/a	n/a	n/a	n/a	n/a	n/a	n/a
136.6196	0.5167	FIXCROSS	n/a	n/a	n/a	n/a	n/a	n/a	n/a	n/a
137.1362	0.5667	INK	40	Neutral	xxxxxxxx	xxxxxxxx	żółty	yellow	hit	n/a
137.6715	n/a	RESPONSE	n/a	n/a	n/a	n/a	n/a	n/a	n/a	yellow
137.7029	1.0167	ITI	n/a	n/a	n/a	n/a	n/a	n/a	n/a	n/a
138.7196	0.5167	FIXCROSS	n/a	n/a	n/a	n/a	n/a	n/a	n/a	n/a
139.2362	0.55	INK	41	Neutral	xxxxxxxxx	xxxxxxxxx	czerwony	red	hit	n/a
139.764	n/a	RESPONSE	n/a	n/a	n/a	n/a	n/a	n/a	n/a	red
139.7863	1.0167	ITI	n/a	n/a	n/a	n/a	n/a	n/a	n/a	n/a
140.8029	0.5167	FIXCROSS	n/a	n/a	n/a	n/a	n/a	n/a	n/a	n/a
141.3196	0.7	INK	42	Incongruent	niebieski	blue	żółty	yellow	hit	n/a
142.0001	n/a	RESPONSE	n/a	n/a	n/a	n/a	n/a	n/a	n/a	yellow
142.0196	1.0167	ITI	n/a	n/a	n/a	n/a	n/a	n/a	n/a	n/a
143.0363	0.5167	FIXCROSS	n/a	n/a	n/a	n/a	n/a	n/a	n/a	n/a
143.553	0.6333	INK	43	Neutral	xxxxxxx	xxxxxxx	czerwony	red	hit	n/a
144.1564	n/a	RESPONSE	n/a	n/a	n/a	n/a	n/a	n/a	n/a	red
144.1863	1.0167	ITI	n/a	n/a	n/a	n/a	n/a	n/a	n/a	n/a
145.203	0.5167	FIXCROSS	n/a	n/a	n/a	n/a	n/a	n/a	n/a	n/a
145.7196	0.65	INK	44	Incongruent	zielony	green	żółty	yellow	hit	n/a
146.3448	n/a	RESPONSE	n/a	n/a	n/a	n/a	n/a	n/a	n/a	yellow
146.3696	1.0167	ITI	n/a	n/a	n/a	n/a	n/a	n/a	n/a	n/a
147.3863	0.5167	FIXCROSS	n/a	n/a	n/a	n/a	n/a	n/a	n/a	n/a
147.903	0.45	INK	45	Incongruent	żółty	yellow	czerwony	red	hit	n/a
148.3255	n/a	RESPONSE	n/a	n/a	n/a	n/a	n/a	n/a	n/a	red
148.353	1.0167	ITI	n/a	n/a	n/a	n/a	n/a	n/a	n/a	n/a
149.3697	0.5167	FIXCROSS	n/a	n/a	n/a	n/a	n/a	n/a	n/a	n/a
149.8863	0.95	INK	46	Neutral	xxxxxxxx	xxxxxxxx	niebieski	blue	hit	n/a
150.8172	n/a	RESPONSE	n/a	n/a	n/a	n/a	n/a	n/a	n/a	blue
150.8363	1.0167	ITI	n/a	n/a	n/a	n/a	n/a	n/a	n/a	n/a
151.853	0.5167	FIXCROSS	n/a	n/a	n/a	n/a	n/a	n/a	n/a	n/a
152.3697	0.4833	INK	47	Incongruent	czerwony	red	niebieski	blue	hit	n/a
152.8298	n/a	RESPONSE	n/a	n/a	n/a	n/a	n/a	n/a	n/a	blue
152.853	1.0167	ITI	n/a	n/a	n/a	n/a	n/a	n/a	n/a	n/a
153.8697	0.5167	FIXCROSS	n/a	n/a	n/a	n/a	n/a	n/a	n/a	n/a
154.3864	0.65	INK	48	Neutral	xxxxx	xxxxx	czerwony	red	hit	n/a
155.0182	n/a	RESPONSE	n/a	n/a	n/a	n/a	n/a	n/a	n/a	red
155.0364	1.0167	ITI	n/a	n/a	n/a	n/a	n/a	n/a	n/a	n/a
156.053	0.5167	FIXCROSS	n/a	n/a	n/a	n/a	n/a	n/a	n/a	n/a
156.5697	0.6833	INK	49	Incongruent	żółty	yellow	niebieski	blue	hit	n/a
157.2224	n/a	RESPONSE	n/a	n/a	n/a	n/a	n/a	n/a	n/a	blue
157.2531	1.0167	ITI	n/a	n/a	n/a	n/a	n/a	n/a	n/a	n/a
158.2697	0.5167	FIXCROSS	n/a	n/a	n/a	n/a	n/a	n/a	n/a	n/a
158.7864	0.6167	INK	50	Neutral	xxxxxxx	xxxxxxx	niebieski	blue	hit	n/a
159.3788	n/a	RESPONSE	n/a	n/a	n/a	n/a	n/a	n/a	n/a	blue
159.4031	1.0167	ITI	n/a	n/a	n/a	n/a	n/a	n/a	n/a	n/a
160.4198	0.5167	FIXCROSS	n/a	n/a	n/a	n/a	n/a	n/a	n/a	n/a
160.9364	0.5833	INK	51	Incongruent	zielony	green	żółty	yellow	hit	n/a
161.4872	n/a	RESPONSE	n/a	n/a	n/a	n/a	n/a	n/a	n/a	yellow
161.5198	1.0167	ITI	n/a	n/a	n/a	n/a	n/a	n/a	n/a	n/a
162.5364	0.5167	FIXCROSS	n/a	n/a	n/a	n/a	n/a	n/a	n/a	n/a
163.0531	0.75	INK	52	Neutral	xxxxxxxxx	xxxxxxxxx	zielony	green	hit	n/a
163.7713	n/a	RESPONSE	n/a	n/a	n/a	n/a	n/a	n/a	n/a	green
163.8031	1.0167	ITI	n/a	n/a	n/a	n/a	n/a	n/a	n/a	n/a
164.8198	0.5167	FIXCROSS	n/a	n/a	n/a	n/a	n/a	n/a	n/a	n/a
165.3365	1.0	INK	53	Incongruent	żółty	yellow	zielony	green	hit	n/a
166.3112	n/a	RESPONSE	n/a	n/a	n/a	n/a	n/a	n/a	n/a	green
166.3365	1.0167	ITI	n/a	n/a	n/a	n/a	n/a	n/a	n/a	n/a
167.3531	0.5167	FIXCROSS	n/a	n/a	n/a	n/a	n/a	n/a	n/a	n/a
167.8698	0.5	INK	54	Neutral	xxxxxxxxx	xxxxxxxxx	zielony	green	hit	n/a
168.3397	n/a	RESPONSE	n/a	n/a	n/a	n/a	n/a	n/a	n/a	green
168.3698	1.0167	ITI	n/a	n/a	n/a	n/a	n/a	n/a	n/a	n/a
169.3865	0.5167	FIXCROSS	n/a	n/a	n/a	n/a	n/a	n/a	n/a	n/a
169.9032	0.6167	INK	55	Incongruent	żółty	yellow	czerwony	red	hit	n/a
170.496	n/a	RESPONSE	n/a	n/a	n/a	n/a	n/a	n/a	n/a	red
170.5198	1.0167	ITI	n/a	n/a	n/a	n/a	n/a	n/a	n/a	n/a
171.5365	0.5167	FIXCROSS	n/a	n/a	n/a	n/a	n/a	n/a	n/a	n/a
172.0532	0.6333	INK	56	Incongruent	niebieski	blue	żółty	yellow	hit	n/a
172.6524	n/a	RESPONSE	n/a	n/a	n/a	n/a	n/a	n/a	n/a	yellow
172.6865	1.0167	ITI	n/a	n/a	n/a	n/a	n/a	n/a	n/a	n/a
173.7032	0.5167	FIXCROSS	n/a	n/a	n/a	n/a	n/a	n/a	n/a	n/a
174.2199	0.95	INK	57	Neutral	xxxxx	xxxxx	zielony	green	hit	n/a
175.1442	n/a	RESPONSE	n/a	n/a	n/a	n/a	n/a	n/a	n/a	green
175.1699	1.0167	ITI	n/a	n/a	n/a	n/a	n/a	n/a	n/a	n/a
176.1865	0.5167	FIXCROSS	n/a	n/a	n/a	n/a	n/a	n/a	n/a	n/a
176.7032	0.5667	INK	58	Neutral	xxxxxxx	xxxxxxx	czerwony	red	hit	n/a
177.2526	n/a	RESPONSE	n/a	n/a	n/a	n/a	n/a	n/a	n/a	red
177.2699	1.0167	ITI	n/a	n/a	n/a	n/a	n/a	n/a	n/a	n/a
178.2866	0.5167	FIXCROSS	n/a	n/a	n/a	n/a	n/a	n/a	n/a	n/a
178.8032	0.6667	INK	59	Neutral	xxxxxxxx	xxxxxxxx	niebieski	blue	hit	n/a
179.4409	n/a	RESPONSE	n/a	n/a	n/a	n/a	n/a	n/a	n/a	blue
179.4699	1.0167	ITI	n/a	n/a	n/a	n/a	n/a	n/a	n/a	n/a
180.4866	0.5167	FIXCROSS	n/a	n/a	n/a	n/a	n/a	n/a	n/a	n/a
181.0033	0.5	INK	60	Neutral	xxxxxxxxx	xxxxxxxxx	czerwony	red	incorrect	n/a
181.4854	n/a	RESPONSE	n/a	n/a	n/a	n/a	n/a	n/a	n/a	blue
181.5033	1.0167	ITI	n/a	n/a	n/a	n/a	n/a	n/a	n/a	n/a
182.5199	0.5167	FIXCROSS	n/a	n/a	n/a	n/a	n/a	n/a	n/a	n/a
183.0366	0.6833	INK	61	Incongruent	niebieski	blue	zielony	green	hit	n/a
183.6896	n/a	RESPONSE	n/a	n/a	n/a	n/a	n/a	n/a	n/a	green
183.7199	1.0167	ITI	n/a	n/a	n/a	n/a	n/a	n/a	n/a	n/a
184.7366	0.5167	FIXCROSS	n/a	n/a	n/a	n/a	n/a	n/a	n/a	n/a
185.2533	0.6333	INK	62	Incongruent	niebieski	blue	zielony	green	hit	n/a
185.862	n/a	RESPONSE	n/a	n/a	n/a	n/a	n/a	n/a	n/a	green
185.8866	1.0167	ITI	n/a	n/a	n/a	n/a	n/a	n/a	n/a	n/a
186.9033	0.5167	FIXCROSS	n/a	n/a	n/a	n/a	n/a	n/a	n/a	n/a
187.42	0.55	INK	63	Neutral	xxxxxxxx	xxxxxxxx	żółty	yellow	hit	n/a
187.9384	n/a	RESPONSE	n/a	n/a	n/a	n/a	n/a	n/a	n/a	yellow
187.97	1.0167	ITI	n/a	n/a	n/a	n/a	n/a	n/a	n/a	n/a
188.9867	0.5167	FIXCROSS	n/a	n/a	n/a	n/a	n/a	n/a	n/a	n/a
189.5033	0.6	INK	64	Incongruent	zielony	green	czerwony	red	hit	n/a
190.0789	n/a	RESPONSE	n/a	n/a	n/a	n/a	n/a	n/a	n/a	red
190.1033	1.0167	ITI	n/a	n/a	n/a	n/a	n/a	n/a	n/a	n/a
191.12	0.5167	FIXCROSS	n/a	n/a	n/a	n/a	n/a	n/a	n/a	n/a
191.6367	0.9333	INK	65	Incongruent	zielony	green	niebieski	blue	hit	n/a
192.5387	n/a	RESPONSE	n/a	n/a	n/a	n/a	n/a	n/a	n/a	blue
192.57	1.0167	ITI	n/a	n/a	n/a	n/a	n/a	n/a	n/a	n/a
193.5867	0.5167	FIXCROSS	n/a	n/a	n/a	n/a	n/a	n/a	n/a	n/a
194.1034	0.8	INK	66	Incongruent	niebieski	blue	czerwony	red	hit	n/a
194.8709	n/a	RESPONSE	n/a	n/a	n/a	n/a	n/a	n/a	n/a	red
194.9034	1.0167	ITI	n/a	n/a	n/a	n/a	n/a	n/a	n/a	n/a
195.92	0.5167	FIXCROSS	n/a	n/a	n/a	n/a	n/a	n/a	n/a	n/a
196.4367	0.5167	INK	67	Incongruent	niebieski	blue	czerwony	red	hit	n/a
196.9313	n/a	RESPONSE	n/a	n/a	n/a	n/a	n/a	n/a	n/a	red
196.9534	1.0167	ITI	n/a	n/a	n/a	n/a	n/a	n/a	n/a	n/a
197.9701	0.5167	FIXCROSS	n/a	n/a	n/a	n/a	n/a	n/a	n/a	n/a
198.4867	0.7667	INK	68	Neutral	xxxxx	xxxxx	zielony	green	hit	n/a
199.2314	n/a	RESPONSE	n/a	n/a	n/a	n/a	n/a	n/a	n/a	green
199.2534	1.0167	ITI	n/a	n/a	n/a	n/a	n/a	n/a	n/a	n/a
200.2701	0.5167	FIXCROSS	n/a	n/a	n/a	n/a	n/a	n/a	n/a	n/a
200.7867	0.5833	INK	69	Neutral	xxxxx	xxxxx	czerwony	red	hit	n/a
201.3399	n/a	RESPONSE	n/a	n/a	n/a	n/a	n/a	n/a	n/a	red
201.3701	1.0167	ITI	n/a	n/a	n/a	n/a	n/a	n/a	n/a	n/a
202.3867	0.5167	FIXCROSS	n/a	n/a	n/a	n/a	n/a	n/a	n/a	n/a
202.9034	0.65	INK	70	Neutral	xxxxxxxx	xxxxxxxx	zielony	green	hit	n/a
203.5281	n/a	RESPONSE	n/a	n/a	n/a	n/a	n/a	n/a	n/a	green
203.5534	1.0167	ITI	n/a	n/a	n/a	n/a	n/a	n/a	n/a	n/a
204.5701	0.5167	FIXCROSS	n/a	n/a	n/a	n/a	n/a	n/a	n/a	n/a
205.0868	0.5334	INK	71	Neutral	xxxxxxxx	xxxxxxxx	żółty	yellow	hit	n/a
205.5887	n/a	RESPONSE	n/a	n/a	n/a	n/a	n/a	n/a	n/a	yellow
205.6201	1.0167	ITI	n/a	n/a	n/a	n/a	n/a	n/a	n/a	n/a
206.6368	0.5167	FIXCROSS	n/a	n/a	n/a	n/a	n/a	n/a	n/a	n/a
207.1535	0.65	INK	72	Neutral	xxxxx	xxxxx	czerwony	red	hit	n/a
207.777	n/a	RESPONSE	n/a	n/a	n/a	n/a	n/a	n/a	n/a	red
207.8035	1.0833	ITI	n/a	n/a	n/a	n/a	n/a	n/a	n/a	n/a
225.1715	n/a	RESPONSE	n/a	n/a	n/a	n/a	n/a	n/a	n/a	n/a
225.2369	1.0167	ITI	n/a	n/a	n/a	n/a	n/a	n/a	n/a	n/a
226.2536	0.5167	FIXCROSS	n/a	n/a	n/a	n/a	n/a	n/a	n/a	n/a
226.7703	1.2167	T_COLOR_NAME	1	Incongruent	czerwony	red	niebieski	blue	hit	n/a
227.9509	n/a	RESPONSE	n/a	n/a	n/a	n/a	n/a	n/a	n/a	red
227.9869	0.5167	FEEDBACK	n/a	n/a	n/a	n/a	n/a	n/a	n/a	n/a
228.5036	1.0167	ITI	n/a	n/a	n/a	n/a	n/a	n/a	n/a	n/a
229.5203	0.5167	FIXCROSS	n/a	n/a	n/a	n/a	n/a	n/a	n/a	n/a
230.037	1.0	T_COLOR_NAME	2	Neutral	niebieski	blue	Neutral	Neutral	hit	n/a
231.0017	n/a	RESPONSE	n/a	n/a	n/a	n/a	n/a	n/a	n/a	blue
231.037	0.5167	FEEDBACK	n/a	n/a	n/a	n/a	n/a	n/a	n/a	n/a
231.5536	1.0167	ITI	n/a	n/a	n/a	n/a	n/a	n/a	n/a	n/a
232.5703	0.5167	FIXCROSS	n/a	n/a	n/a	n/a	n/a	n/a	n/a	n/a
233.087	0.6167	T_COLOR_NAME	3	Neutral	żółty	yellow	Neutral	Neutral	hit	n/a
233.6692	n/a	RESPONSE	n/a	n/a	n/a	n/a	n/a	n/a	n/a	yellow
233.7037	0.5167	FEEDBACK	n/a	n/a	n/a	n/a	n/a	n/a	n/a	n/a
234.2203	1.0167	ITI	n/a	n/a	n/a	n/a	n/a	n/a	n/a	n/a
235.237	0.5167	FIXCROSS	n/a	n/a	n/a	n/a	n/a	n/a	n/a	n/a
235.7537	0.5833	T_COLOR_NAME	4	Neutral	zielony	green	Neutral	Neutral	hit	n/a
236.3048	n/a	RESPONSE	n/a	n/a	n/a	n/a	n/a	n/a	n/a	green
236.337	0.5167	FEEDBACK	n/a	n/a	n/a	n/a	n/a	n/a	n/a	n/a
236.8537	1.0167	ITI	n/a	n/a	n/a	n/a	n/a	n/a	n/a	n/a
237.8704	0.5167	FIXCROSS	n/a	n/a	n/a	n/a	n/a	n/a	n/a	n/a
238.387	1.2833	T_COLOR_NAME	5	Incongruent	zielony	green	czerwony	red	hit	n/a
239.6431	n/a	RESPONSE	n/a	n/a	n/a	n/a	n/a	n/a	n/a	green
239.6704	0.5167	FEEDBACK	n/a	n/a	n/a	n/a	n/a	n/a	n/a	n/a
240.187	1.0167	ITI	n/a	n/a	n/a	n/a	n/a	n/a	n/a	n/a
241.2037	0.5167	FIXCROSS	n/a	n/a	n/a	n/a	n/a	n/a	n/a	n/a
241.7204	0.7	T_COLOR_NAME	6	Incongruent	zielony	green	niebieski	blue	incorrect	n/a
242.3905	n/a	RESPONSE	n/a	n/a	n/a	n/a	n/a	n/a	n/a	blue
242.4204	0.5167	FEEDBACK	n/a	n/a	n/a	n/a	n/a	n/a	n/a	n/a
242.9371	1.0167	ITI	n/a	n/a	n/a	n/a	n/a	n/a	n/a	n/a
243.9537	0.5167	FIXCROSS	n/a	n/a	n/a	n/a	n/a	n/a	n/a	n/a
244.4704	0.75	T_COLOR_NAME	7	Neutral	zielony	green	Neutral	Neutral	hit	n/a
245.1858	n/a	RESPONSE	n/a	n/a	n/a	n/a	n/a	n/a	n/a	green
245.2204	0.5167	FEEDBACK	n/a	n/a	n/a	n/a	n/a	n/a	n/a	n/a
245.7371	1.0167	ITI	n/a	n/a	n/a	n/a	n/a	n/a	n/a	n/a
246.7538	0.5167	FIXCROSS	n/a	n/a	n/a	n/a	n/a	n/a	n/a	n/a
247.2704	0.8833	T_COLOR_NAME	8	Incongruent	żółty	yellow	niebieski	blue	hit	n/a
248.1248	n/a	RESPONSE	n/a	n/a	n/a	n/a	n/a	n/a	n/a	yellow
248.1538	0.5167	FEEDBACK	n/a	n/a	n/a	n/a	n/a	n/a	n/a	n/a
248.6705	1.0167	ITI	n/a	n/a	n/a	n/a	n/a	n/a	n/a	n/a
249.6871	0.5167	FIXCROSS	n/a	n/a	n/a	n/a	n/a	n/a	n/a	n/a
250.2038	1.1	T_COLOR_NAME	9	Incongruent	niebieski	blue	żółty	yellow	hit	n/a
251.2715	n/a	RESPONSE	n/a	n/a	n/a	n/a	n/a	n/a	n/a	blue
251.3038	0.5167	FEEDBACK	n/a	n/a	n/a	n/a	n/a	n/a	n/a	n/a
251.8205	1.0167	ITI	n/a	n/a	n/a	n/a	n/a	n/a	n/a	n/a
252.8372	0.5167	FIXCROSS	n/a	n/a	n/a	n/a	n/a	n/a	n/a	n/a
253.3538	0.85	T_COLOR_NAME	10	Incongruent	zielony	green	żółty	yellow	hit	n/a
254.1786	n/a	RESPONSE	n/a	n/a	n/a	n/a	n/a	n/a	n/a	green
254.2038	0.5167	FEEDBACK	n/a	n/a	n/a	n/a	n/a	n/a	n/a	n/a
254.7205	1.0167	ITI	n/a	n/a	n/a	n/a	n/a	n/a	n/a	n/a
255.7372	0.5167	FIXCROSS	n/a	n/a	n/a	n/a	n/a	n/a	n/a	n/a
256.2538	1.0667	T_COLOR_NAME	11	Incongruent	niebieski	blue	zielony	green	hit	n/a
257.2933	n/a	RESPONSE	n/a	n/a	n/a	n/a	n/a	n/a	n/a	blue
257.3205	0.5167	FEEDBACK	n/a	n/a	n/a	n/a	n/a	n/a	n/a	n/a
257.8372	1.0167	ITI	n/a	n/a	n/a	n/a	n/a	n/a	n/a	n/a
258.8539	0.5167	FIXCROSS	n/a	n/a	n/a	n/a	n/a	n/a	n/a	n/a
259.3705	0.8	T_COLOR_NAME	12	Neutral	czerwony	red	Neutral	Neutral	hit	n/a
260.1363	n/a	RESPONSE	n/a	n/a	n/a	n/a	n/a	n/a	n/a	red
260.1705	0.5167	FEEDBACK	n/a	n/a	n/a	n/a	n/a	n/a	n/a	n/a
260.6872	1.0333	ITI	n/a	n/a	n/a	n/a	n/a	n/a	n/a	n/a
262.8359	n/a	RESPONSE	n/a	n/a	n/a	n/a	n/a	n/a	n/a	n/a
262.9039	1.0166	ITI	n/a	n/a	n/a	n/a	n/a	n/a	n/a	n/a
263.9205	0.5168	FIXCROSS	n/a	n/a	n/a	n/a	n/a	n/a	n/a	n/a
264.4372	0.9167	COLOR_NAME	1	Neutral	zielony	green	Neutral	Neutral	hit	n/a
265.3276	n/a	RESPONSE	n/a	n/a	n/a	n/a	n/a	n/a	n/a	green
265.3539	1.0167	ITI	n/a	n/a	n/a	n/a	n/a	n/a	n/a	n/a
266.3706	0.5167	FIXCROSS	n/a	n/a	n/a	n/a	n/a	n/a	n/a	n/a
266.8873	0.7	COLOR_NAME	2	Neutral	żółty	yellow	Neutral	Neutral	hit	n/a
267.5638	n/a	RESPONSE	n/a	n/a	n/a	n/a	n/a	n/a	n/a	yellow
267.5873	1.0167	ITI	n/a	n/a	n/a	n/a	n/a	n/a	n/a	n/a
268.6039	0.5167	FIXCROSS	n/a	n/a	n/a	n/a	n/a	n/a	n/a	n/a
269.1206	0.5833	COLOR_NAME	3	Neutral	żółty	yellow	Neutral	Neutral	hit	n/a
269.6723	n/a	RESPONSE	n/a	n/a	n/a	n/a	n/a	n/a	n/a	yellow
269.7039	1.0167	ITI	n/a	n/a	n/a	n/a	n/a	n/a	n/a	n/a
270.7206	0.5167	FIXCROSS	n/a	n/a	n/a	n/a	n/a	n/a	n/a	n/a
271.2373	0.5	COLOR_NAME	4	Neutral	żółty	yellow	Neutral	Neutral	hit	n/a
271.7168	n/a	RESPONSE	n/a	n/a	n/a	n/a	n/a	n/a	n/a	yellow
271.7373	1.0167	ITI	n/a	n/a	n/a	n/a	n/a	n/a	n/a	n/a
272.754	0.5167	FIXCROSS	n/a	n/a	n/a	n/a	n/a	n/a	n/a	n/a
273.2706	0.5333	COLOR_NAME	5	Neutral	czerwony	red	Neutral	Neutral	hit	n/a
273.7772	n/a	RESPONSE	n/a	n/a	n/a	n/a	n/a	n/a	n/a	red
273.804	1.0167	ITI	n/a	n/a	n/a	n/a	n/a	n/a	n/a	n/a
274.8207	0.5167	FIXCROSS	n/a	n/a	n/a	n/a	n/a	n/a	n/a	n/a
275.3373	1.0833	COLOR_NAME	6	Incongruent	zielony	green	czerwony	red	hit	n/a
276.397	n/a	RESPONSE	n/a	n/a	n/a	n/a	n/a	n/a	n/a	green
276.4207	1.0167	ITI	n/a	n/a	n/a	n/a	n/a	n/a	n/a	n/a
277.4373	0.5167	FIXCROSS	n/a	n/a	n/a	n/a	n/a	n/a	n/a	n/a
277.954	1.0333	COLOR_NAME	7	Incongruent	czerwony	red	zielony	green	hit	n/a
278.9525	n/a	RESPONSE	n/a	n/a	n/a	n/a	n/a	n/a	n/a	red
278.9874	1.0167	ITI	n/a	n/a	n/a	n/a	n/a	n/a	n/a	n/a
280.004	0.5167	FIXCROSS	n/a	n/a	n/a	n/a	n/a	n/a	n/a	n/a
280.5207	1.35	COLOR_NAME	8	Incongruent	żółty	yellow	niebieski	blue	incorrect	n/a
281.8436	n/a	RESPONSE	n/a	n/a	n/a	n/a	n/a	n/a	n/a	blue
281.8707	1.0167	ITI	n/a	n/a	n/a	n/a	n/a	n/a	n/a	n/a
282.8874	0.5167	FIXCROSS	n/a	n/a	n/a	n/a	n/a	n/a	n/a	n/a
283.4041	0.9333	COLOR_NAME	9	Neutral	żółty	yellow	Neutral	Neutral	hit	n/a
284.3194	n/a	RESPONSE	n/a	n/a	n/a	n/a	n/a	n/a	n/a	yellow
284.3374	1.0167	ITI	n/a	n/a	n/a	n/a	n/a	n/a	n/a	n/a
285.3541	0.5167	FIXCROSS	n/a	n/a	n/a	n/a	n/a	n/a	n/a	n/a
285.8707	1.2	COLOR_NAME	10	Neutral	niebieski	blue	Neutral	Neutral	hit	n/a
287.0348	n/a	RESPONSE	n/a	n/a	n/a	n/a	n/a	n/a	n/a	blue
287.0707	1.0167	ITI	n/a	n/a	n/a	n/a	n/a	n/a	n/a	n/a
288.0874	0.5167	FIXCROSS	n/a	n/a	n/a	n/a	n/a	n/a	n/a	n/a
288.6041	0.7167	COLOR_NAME	11	Incongruent	niebieski	blue	zielony	green	hit	n/a
289.3029	n/a	RESPONSE	n/a	n/a	n/a	n/a	n/a	n/a	n/a	blue
289.3208	1.0167	ITI	n/a	n/a	n/a	n/a	n/a	n/a	n/a	n/a
290.3374	0.5167	FIXCROSS	n/a	n/a	n/a	n/a	n/a	n/a	n/a	n/a
290.8541	0.5333	COLOR_NAME	12	Neutral	niebieski	blue	Neutral	Neutral	hit	n/a
291.3634	n/a	RESPONSE	n/a	n/a	n/a	n/a	n/a	n/a	n/a	blue
291.3875	1.0167	ITI	n/a	n/a	n/a	n/a	n/a	n/a	n/a	n/a
292.4041	0.5167	FIXCROSS	n/a	n/a	n/a	n/a	n/a	n/a	n/a	n/a
292.9208	0.6167	COLOR_NAME	13	Incongruent	żółty	yellow	zielony	green	hit	n/a
293.5198	n/a	RESPONSE	n/a	n/a	n/a	n/a	n/a	n/a	n/a	yellow
293.5375	1.0167	ITI	n/a	n/a	n/a	n/a	n/a	n/a	n/a	n/a
294.5541	0.5167	FIXCROSS	n/a	n/a	n/a	n/a	n/a	n/a	n/a	n/a
295.0708	0.75	COLOR_NAME	14	Neutral	zielony	green	Neutral	Neutral	hit	n/a
295.788	n/a	RESPONSE	n/a	n/a	n/a	n/a	n/a	n/a	n/a	green
295.8208	1.0167	ITI	n/a	n/a	n/a	n/a	n/a	n/a	n/a	n/a
296.8375	0.5167	FIXCROSS	n/a	n/a	n/a	n/a	n/a	n/a	n/a	n/a
297.3542	0.65	COLOR_NAME	15	Neutral	czerwony	red	Neutral	Neutral	hit	n/a
297.9763	n/a	RESPONSE	n/a	n/a	n/a	n/a	n/a	n/a	n/a	red
298.0042	1.0167	ITI	n/a	n/a	n/a	n/a	n/a	n/a	n/a	n/a
299.0208	0.5167	FIXCROSS	n/a	n/a	n/a	n/a	n/a	n/a	n/a	n/a
299.5375	0.6667	COLOR_NAME	16	Neutral	niebieski	blue	Neutral	Neutral	hit	n/a
300.1806	n/a	RESPONSE	n/a	n/a	n/a	n/a	n/a	n/a	n/a	blue
300.2042	1.0167	ITI	n/a	n/a	n/a	n/a	n/a	n/a	n/a	n/a
301.2209	0.5167	FIXCROSS	n/a	n/a	n/a	n/a	n/a	n/a	n/a	n/a
301.7375	0.9	COLOR_NAME	17	Neutral	zielony	green	Neutral	Neutral	hit	n/a
302.6084	n/a	RESPONSE	n/a	n/a	n/a	n/a	n/a	n/a	n/a	green
302.6375	1.0167	ITI	n/a	n/a	n/a	n/a	n/a	n/a	n/a	n/a
303.6542	0.5167	FIXCROSS	n/a	n/a	n/a	n/a	n/a	n/a	n/a	n/a
304.1709	0.6167	COLOR_NAME	18	Neutral	zielony	green	Neutral	Neutral	hit	n/a
304.7648	n/a	RESPONSE	n/a	n/a	n/a	n/a	n/a	n/a	n/a	green
304.7875	1.0167	ITI	n/a	n/a	n/a	n/a	n/a	n/a	n/a	n/a
305.8042	0.5167	FIXCROSS	n/a	n/a	n/a	n/a	n/a	n/a	n/a	n/a
306.3209	0.6167	COLOR_NAME	19	Neutral	czerwony	red	Neutral	Neutral	hit	n/a
306.9051	n/a	RESPONSE	n/a	n/a	n/a	n/a	n/a	n/a	n/a	red
306.9376	1.0167	ITI	n/a	n/a	n/a	n/a	n/a	n/a	n/a	n/a
307.9542	0.5167	FIXCROSS	n/a	n/a	n/a	n/a	n/a	n/a	n/a	n/a
308.4709	0.5667	COLOR_NAME	20	Neutral	żółty	yellow	Neutral	Neutral	hit	n/a
309.0136	n/a	RESPONSE	n/a	n/a	n/a	n/a	n/a	n/a	n/a	yellow
309.0376	1.0167	ITI	n/a	n/a	n/a	n/a	n/a	n/a	n/a	n/a
310.0542	0.5167	FIXCROSS	n/a	n/a	n/a	n/a	n/a	n/a	n/a	n/a
310.5709	0.8333	COLOR_NAME	21	Incongruent	czerwony	red	niebieski	blue	hit	n/a
311.3776	n/a	RESPONSE	n/a	n/a	n/a	n/a	n/a	n/a	n/a	red
311.4043	1.0167	ITI	n/a	n/a	n/a	n/a	n/a	n/a	n/a	n/a
312.4209	0.5167	FIXCROSS	n/a	n/a	n/a	n/a	n/a	n/a	n/a	n/a
312.9376	1.4667	COLOR_NAME	22	Incongruent	niebieski	blue	zielony	green	incorrect	n/a
314.3805	n/a	RESPONSE	n/a	n/a	n/a	n/a	n/a	n/a	n/a	green
314.4043	1.0167	ITI	n/a	n/a	n/a	n/a	n/a	n/a	n/a	n/a
315.421	0.5167	FIXCROSS	n/a	n/a	n/a	n/a	n/a	n/a	n/a	n/a
315.9376	0.7167	COLOR_NAME	23	Incongruent	czerwony	red	zielony	green	hit	n/a
316.6327	n/a	RESPONSE	n/a	n/a	n/a	n/a	n/a	n/a	n/a	red
316.6543	1.0167	ITI	n/a	n/a	n/a	n/a	n/a	n/a	n/a	n/a
317.671	0.5167	FIXCROSS	n/a	n/a	n/a	n/a	n/a	n/a	n/a	n/a
318.1876	1.5	COLOR_NAME	24	Incongruent	czerwony	red	zielony	green	hit	n/a
319.6676	n/a	RESPONSE	n/a	n/a	n/a	n/a	n/a	n/a	n/a	red
319.6877	1.0167	ITI	n/a	n/a	n/a	n/a	n/a	n/a	n/a	n/a
320.7043	0.5167	FIXCROSS	n/a	n/a	n/a	n/a	n/a	n/a	n/a	n/a
321.221	1.2667	COLOR_NAME	25	Incongruent	zielony	green	żółty	yellow	hit	n/a
322.4628	n/a	RESPONSE	n/a	n/a	n/a	n/a	n/a	n/a	n/a	green
322.4877	1.0167	ITI	n/a	n/a	n/a	n/a	n/a	n/a	n/a	n/a
323.5044	0.5167	FIXCROSS	n/a	n/a	n/a	n/a	n/a	n/a	n/a	n/a
324.021	0.6167	COLOR_NAME	26	Neutral	niebieski	blue	Neutral	Neutral	hit	n/a
324.6192	n/a	RESPONSE	n/a	n/a	n/a	n/a	n/a	n/a	n/a	blue
324.6377	1.0167	ITI	n/a	n/a	n/a	n/a	n/a	n/a	n/a	n/a
325.6544	0.5167	FIXCROSS	n/a	n/a	n/a	n/a	n/a	n/a	n/a	n/a
326.171	0.6667	COLOR_NAME	27	Neutral	niebieski	blue	Neutral	Neutral	hit	n/a
326.8075	n/a	RESPONSE	n/a	n/a	n/a	n/a	n/a	n/a	n/a	blue
326.8377	1.0167	ITI	n/a	n/a	n/a	n/a	n/a	n/a	n/a	n/a
327.8544	0.5167	FIXCROSS	n/a	n/a	n/a	n/a	n/a	n/a	n/a	n/a
328.3711	0.6667	COLOR_NAME	28	Neutral	zielony	green	Neutral	Neutral	hit	n/a
329.0117	n/a	RESPONSE	n/a	n/a	n/a	n/a	n/a	n/a	n/a	green
329.0377	1.0167	ITI	n/a	n/a	n/a	n/a	n/a	n/a	n/a	n/a
330.0544	0.5167	FIXCROSS	n/a	n/a	n/a	n/a	n/a	n/a	n/a	n/a
330.5711	0.65	COLOR_NAME	29	Neutral	czerwony	red	Neutral	Neutral	hit	n/a
331.2001	n/a	RESPONSE	n/a	n/a	n/a	n/a	n/a	n/a	n/a	red
331.2211	1.0167	ITI	n/a	n/a	n/a	n/a	n/a	n/a	n/a	n/a
332.2378	0.5167	FIXCROSS	n/a	n/a	n/a	n/a	n/a	n/a	n/a	n/a
332.7544	1.1333	COLOR_NAME	30	Incongruent	niebieski	blue	żółty	yellow	hit	n/a
333.8676	n/a	RESPONSE	n/a	n/a	n/a	n/a	n/a	n/a	n/a	blue
333.8878	1.0167	ITI	n/a	n/a	n/a	n/a	n/a	n/a	n/a	n/a
334.9044	0.5167	FIXCROSS	n/a	n/a	n/a	n/a	n/a	n/a	n/a	n/a
335.4211	0.6833	COLOR_NAME	31	Neutral	czerwony	red	Neutral	Neutral	hit	n/a
336.0718	n/a	RESPONSE	n/a	n/a	n/a	n/a	n/a	n/a	n/a	red
336.1045	1.0167	ITI	n/a	n/a	n/a	n/a	n/a	n/a	n/a	n/a
337.1211	0.5167	FIXCROSS	n/a	n/a	n/a	n/a	n/a	n/a	n/a	n/a
337.6378	0.8667	COLOR_NAME	32	Neutral	czerwony	red	Neutral	Neutral	hit	n/a
338.4838	n/a	RESPONSE	n/a	n/a	n/a	n/a	n/a	n/a	n/a	red
338.5045	1.0167	ITI	n/a	n/a	n/a	n/a	n/a	n/a	n/a	n/a
339.5212	0.5167	FIXCROSS	n/a	n/a	n/a	n/a	n/a	n/a	n/a	n/a
340.0378	1.0167	COLOR_NAME	33	Neutral	zielony	green	Neutral	Neutral	hit	n/a
341.0235	n/a	RESPONSE	n/a	n/a	n/a	n/a	n/a	n/a	n/a	green
341.0545	1.0167	ITI	n/a	n/a	n/a	n/a	n/a	n/a	n/a	n/a
342.0712	0.5167	FIXCROSS	n/a	n/a	n/a	n/a	n/a	n/a	n/a	n/a
342.5878	0.6333	COLOR_NAME	34	Incongruent	żółty	yellow	czerwony	red	hit	n/a
343.1958	n/a	RESPONSE	n/a	n/a	n/a	n/a	n/a	n/a	n/a	yellow
343.2212	1.0167	ITI	n/a	n/a	n/a	n/a	n/a	n/a	n/a	n/a
344.2379	0.5167	FIXCROSS	n/a	n/a	n/a	n/a	n/a	n/a	n/a	n/a
344.7545	1.6334	COLOR_NAME	35	Incongruent	niebieski	blue	czerwony	red	hit	n/a
346.3584	n/a	RESPONSE	n/a	n/a	n/a	n/a	n/a	n/a	n/a	blue
346.3879	1.0167	ITI	n/a	n/a	n/a	n/a	n/a	n/a	n/a	n/a
347.4045	0.5167	FIXCROSS	n/a	n/a	n/a	n/a	n/a	n/a	n/a	n/a
347.9212	0.5167	COLOR_NAME	36	Neutral	zielony	green	Neutral	Neutral	hit	n/a
348.4189	n/a	RESPONSE	n/a	n/a	n/a	n/a	n/a	n/a	n/a	green
348.4379	1.0167	ITI	n/a	n/a	n/a	n/a	n/a	n/a	n/a	n/a
349.4546	0.5167	FIXCROSS	n/a	n/a	n/a	n/a	n/a	n/a	n/a	n/a
349.9712	0.65	COLOR_NAME	37	Neutral	zielony	green	Neutral	Neutral	hit	n/a
350.5913	n/a	RESPONSE	n/a	n/a	n/a	n/a	n/a	n/a	n/a	green
350.6212	1.0167	ITI	n/a	n/a	n/a	n/a	n/a	n/a	n/a	n/a
351.6379	0.5167	FIXCROSS	n/a	n/a	n/a	n/a	n/a	n/a	n/a	n/a
352.1546	0.6667	COLOR_NAME	38	Incongruent	czerwony	red	żółty	yellow	hit	n/a
352.7955	n/a	RESPONSE	n/a	n/a	n/a	n/a	n/a	n/a	n/a	red
352.8213	1.0167	ITI	n/a	n/a	n/a	n/a	n/a	n/a	n/a	n/a
353.8379	0.5167	FIXCROSS	n/a	n/a	n/a	n/a	n/a	n/a	n/a	n/a
354.3546	0.7167	COLOR_NAME	39	Incongruent	zielony	green	czerwony	red	hit	n/a
355.0477	n/a	RESPONSE	n/a	n/a	n/a	n/a	n/a	n/a	n/a	green
355.0713	1.0167	ITI	n/a	n/a	n/a	n/a	n/a	n/a	n/a	n/a
356.0879	0.5167	FIXCROSS	n/a	n/a	n/a	n/a	n/a	n/a	n/a	n/a
356.6046	0.7667	COLOR_NAME	40	Neutral	niebieski	blue	Neutral	Neutral	hit	n/a
357.3478	n/a	RESPONSE	n/a	n/a	n/a	n/a	n/a	n/a	n/a	blue
357.3713	1.0167	ITI	n/a	n/a	n/a	n/a	n/a	n/a	n/a	n/a
358.388	0.5167	FIXCROSS	n/a	n/a	n/a	n/a	n/a	n/a	n/a	n/a
358.9046	0.65	COLOR_NAME	41	Incongruent	żółty	yellow	zielony	green	hit	n/a
359.5361	n/a	RESPONSE	n/a	n/a	n/a	n/a	n/a	n/a	n/a	yellow
359.5546	1.0167	ITI	n/a	n/a	n/a	n/a	n/a	n/a	n/a	n/a
360.5713	0.5167	FIXCROSS	n/a	n/a	n/a	n/a	n/a	n/a	n/a	n/a
361.088	0.8833	COLOR_NAME	42	Incongruent	czerwony	red	niebieski	blue	hit	n/a
361.948	n/a	RESPONSE	n/a	n/a	n/a	n/a	n/a	n/a	n/a	red
361.9713	1.0167	ITI	n/a	n/a	n/a	n/a	n/a	n/a	n/a	n/a
362.988	0.5167	FIXCROSS	n/a	n/a	n/a	n/a	n/a	n/a	n/a	n/a
363.5047	0.9833	COLOR_NAME	43	Incongruent	zielony	green	niebieski	blue	hit	n/a
364.4557	n/a	RESPONSE	n/a	n/a	n/a	n/a	n/a	n/a	n/a	green
364.488	1.0167	ITI	n/a	n/a	n/a	n/a	n/a	n/a	n/a	n/a
365.5047	0.5167	FIXCROSS	n/a	n/a	n/a	n/a	n/a	n/a	n/a	n/a
366.0214	0.5	COLOR_NAME	44	Neutral	niebieski	blue	Neutral	Neutral	hit	n/a
366.5003	n/a	RESPONSE	n/a	n/a	n/a	n/a	n/a	n/a	n/a	blue
366.5214	1.0167	ITI	n/a	n/a	n/a	n/a	n/a	n/a	n/a	n/a
367.538	0.5167	FIXCROSS	n/a	n/a	n/a	n/a	n/a	n/a	n/a	n/a
368.0547	0.8	COLOR_NAME	45	Incongruent	niebieski	blue	żółty	yellow	hit	n/a
368.8324	n/a	RESPONSE	n/a	n/a	n/a	n/a	n/a	n/a	n/a	blue
368.8547	1.0167	ITI	n/a	n/a	n/a	n/a	n/a	n/a	n/a	n/a
369.8714	0.5167	FIXCROSS	n/a	n/a	n/a	n/a	n/a	n/a	n/a	n/a
370.3881	0.5667	COLOR_NAME	46	Incongruent	zielony	green	żółty	yellow	incorrect	n/a
370.9249	n/a	RESPONSE	n/a	n/a	n/a	n/a	n/a	n/a	n/a	yellow
370.9547	1.0166	ITI	n/a	n/a	n/a	n/a	n/a	n/a	n/a	n/a
371.9713	0.5167	FIXCROSS	n/a	n/a	n/a	n/a	n/a	n/a	n/a	n/a
372.4881	1.4833	COLOR_NAME	47	Incongruent	zielony	green	niebieski	blue	hit	n/a
373.9437	n/a	RESPONSE	n/a	n/a	n/a	n/a	n/a	n/a	n/a	green
373.9714	1.0167	ITI	n/a	n/a	n/a	n/a	n/a	n/a	n/a	n/a
374.9881	0.5167	FIXCROSS	n/a	n/a	n/a	n/a	n/a	n/a	n/a	n/a
375.5048	0.6667	COLOR_NAME	48	Incongruent	żółty	yellow	niebieski	blue	hit	n/a
376.148	n/a	RESPONSE	n/a	n/a	n/a	n/a	n/a	n/a	n/a	yellow
376.1714	1.0167	ITI	n/a	n/a	n/a	n/a	n/a	n/a	n/a	n/a
377.1881	0.5167	FIXCROSS	n/a	n/a	n/a	n/a	n/a	n/a	n/a	n/a
377.7048	0.6	COLOR_NAME	49	Neutral	żółty	yellow	Neutral	Neutral	hit	n/a
378.2723	n/a	RESPONSE	n/a	n/a	n/a	n/a	n/a	n/a	n/a	yellow
378.3048	1.0167	ITI	n/a	n/a	n/a	n/a	n/a	n/a	n/a	n/a
379.3215	0.5167	FIXCROSS	n/a	n/a	n/a	n/a	n/a	n/a	n/a	n/a
379.8381	1.2833	COLOR_NAME	50	Incongruent	niebieski	blue	zielony	green	hit	n/a
381.0995	n/a	RESPONSE	n/a	n/a	n/a	n/a	n/a	n/a	n/a	blue
381.1215	1.0167	ITI	n/a	n/a	n/a	n/a	n/a	n/a	n/a	n/a
382.1382	0.5167	FIXCROSS	n/a	n/a	n/a	n/a	n/a	n/a	n/a	n/a
382.6548	0.6833	COLOR_NAME	51	Incongruent	niebieski	blue	czerwony	red	hit	n/a
383.3198	n/a	RESPONSE	n/a	n/a	n/a	n/a	n/a	n/a	n/a	blue
383.3382	1.0167	ITI	n/a	n/a	n/a	n/a	n/a	n/a	n/a	n/a
384.3548	0.5167	FIXCROSS	n/a	n/a	n/a	n/a	n/a	n/a	n/a	n/a
384.8715	0.65	COLOR_NAME	52	Neutral	żółty	yellow	Neutral	Neutral	hit	n/a
385.4921	n/a	RESPONSE	n/a	n/a	n/a	n/a	n/a	n/a	n/a	yellow
385.5215	1.0167	ITI	n/a	n/a	n/a	n/a	n/a	n/a	n/a	n/a
386.5382	0.5167	FIXCROSS	n/a	n/a	n/a	n/a	n/a	n/a	n/a	n/a
387.0549	0.7667	COLOR_NAME	53	Incongruent	czerwony	red	żółty	yellow	hit	n/a
387.7922	n/a	RESPONSE	n/a	n/a	n/a	n/a	n/a	n/a	n/a	red
387.8215	1.0167	ITI	n/a	n/a	n/a	n/a	n/a	n/a	n/a	n/a
388.8382	0.5167	FIXCROSS	n/a	n/a	n/a	n/a	n/a	n/a	n/a	n/a
389.3549	0.5167	COLOR_NAME	54	Neutral	czerwony	red	Neutral	Neutral	hit	n/a
389.8528	n/a	RESPONSE	n/a	n/a	n/a	n/a	n/a	n/a	n/a	red
389.8715	1.0167	ITI	n/a	n/a	n/a	n/a	n/a	n/a	n/a	n/a
390.8882	0.5167	FIXCROSS	n/a	n/a	n/a	n/a	n/a	n/a	n/a	n/a
391.4049	0.5833	COLOR_NAME	55	Neutral	żółty	yellow	Neutral	Neutral	hit	n/a
391.9612	n/a	RESPONSE	n/a	n/a	n/a	n/a	n/a	n/a	n/a	yellow
391.9882	1.0167	ITI	n/a	n/a	n/a	n/a	n/a	n/a	n/a	n/a
393.0049	0.5167	FIXCROSS	n/a	n/a	n/a	n/a	n/a	n/a	n/a	n/a
393.5216	0.6833	COLOR_NAME	56	Neutral	niebieski	blue	Neutral	Neutral	hit	n/a
394.1815	n/a	RESPONSE	n/a	n/a	n/a	n/a	n/a	n/a	n/a	blue
394.2049	1.0167	ITI	n/a	n/a	n/a	n/a	n/a	n/a	n/a	n/a
395.2216	0.5167	FIXCROSS	n/a	n/a	n/a	n/a	n/a	n/a	n/a	n/a
395.7383	0.5333	COLOR_NAME	57	Neutral	zielony	green	Neutral	Neutral	hit	n/a
396.242	n/a	RESPONSE	n/a	n/a	n/a	n/a	n/a	n/a	n/a	green
396.2716	1.0167	ITI	n/a	n/a	n/a	n/a	n/a	n/a	n/a	n/a
397.2883	0.5167	FIXCROSS	n/a	n/a	n/a	n/a	n/a	n/a	n/a	n/a
397.8049	0.6	COLOR_NAME	58	Neutral	czerwony	red	Neutral	Neutral	hit	n/a
398.3823	n/a	RESPONSE	n/a	n/a	n/a	n/a	n/a	n/a	n/a	red
398.4049	1.0167	ITI	n/a	n/a	n/a	n/a	n/a	n/a	n/a	n/a
399.4216	0.5167	FIXCROSS	n/a	n/a	n/a	n/a	n/a	n/a	n/a	n/a
399.9383	1.05	COLOR_NAME	59	Incongruent	zielony	green	czerwony	red	hit	n/a
400.9701	n/a	RESPONSE	n/a	n/a	n/a	n/a	n/a	n/a	n/a	green
400.9883	1.0167	ITI	n/a	n/a	n/a	n/a	n/a	n/a	n/a	n/a
402.005	0.5167	FIXCROSS	n/a	n/a	n/a	n/a	n/a	n/a	n/a	n/a
402.5216	0.6167	COLOR_NAME	60	Incongruent	zielony	green	niebieski	blue	hit	n/a
403.1104	n/a	RESPONSE	n/a	n/a	n/a	n/a	n/a	n/a	n/a	green
403.1383	1.0167	ITI	n/a	n/a	n/a	n/a	n/a	n/a	n/a	n/a
404.155	0.5167	FIXCROSS	n/a	n/a	n/a	n/a	n/a	n/a	n/a	n/a
404.6717	0.5	COLOR_NAME	61	Incongruent	zielony	green	żółty	yellow	hit	n/a
405.139	n/a	RESPONSE	n/a	n/a	n/a	n/a	n/a	n/a	n/a	green
405.1717	1.0167	ITI	n/a	n/a	n/a	n/a	n/a	n/a	n/a	n/a
406.1883	0.5167	FIXCROSS	n/a	n/a	n/a	n/a	n/a	n/a	n/a	n/a
406.705	0.5833	COLOR_NAME	62	Neutral	niebieski	blue	Neutral	Neutral	hit	n/a
407.2634	n/a	RESPONSE	n/a	n/a	n/a	n/a	n/a	n/a	n/a	blue
407.2884	1.0167	ITI	n/a	n/a	n/a	n/a	n/a	n/a	n/a	n/a
408.305	0.5167	FIXCROSS	n/a	n/a	n/a	n/a	n/a	n/a	n/a	n/a
408.8217	0.4833	COLOR_NAME	63	Incongruent	niebieski	blue	czerwony	red	hit	n/a
409.276	n/a	RESPONSE	n/a	n/a	n/a	n/a	n/a	n/a	n/a	blue
409.305	1.0167	ITI	n/a	n/a	n/a	n/a	n/a	n/a	n/a	n/a
410.3217	0.5167	FIXCROSS	n/a	n/a	n/a	n/a	n/a	n/a	n/a	n/a
410.8384	0.7	COLOR_NAME	64	Incongruent	czerwony	red	niebieski	blue	hit	n/a
411.5122	n/a	RESPONSE	n/a	n/a	n/a	n/a	n/a	n/a	n/a	red
411.5384	1.0167	ITI	n/a	n/a	n/a	n/a	n/a	n/a	n/a	n/a
412.5551	0.5167	FIXCROSS	n/a	n/a	n/a	n/a	n/a	n/a	n/a	n/a
413.0717	0.9333	COLOR_NAME	65	Incongruent	czerwony	red	żółty	yellow	hit	n/a
413.9719	n/a	RESPONSE	n/a	n/a	n/a	n/a	n/a	n/a	n/a	red
414.0051	1.0167	ITI	n/a	n/a	n/a	n/a	n/a	n/a	n/a	n/a
415.0217	0.5167	FIXCROSS	n/a	n/a	n/a	n/a	n/a	n/a	n/a	n/a
415.5384	0.5667	COLOR_NAME	66	Incongruent	żółty	yellow	czerwony	red	hit	n/a
416.0804	n/a	RESPONSE	n/a	n/a	n/a	n/a	n/a	n/a	n/a	yellow
416.1051	1.0167	ITI	n/a	n/a	n/a	n/a	n/a	n/a	n/a	n/a
417.1218	0.5167	FIXCROSS	n/a	n/a	n/a	n/a	n/a	n/a	n/a	n/a
417.6384	0.7167	COLOR_NAME	67	Incongruent	niebieski	blue	żółty	yellow	hit	n/a
418.3326	n/a	RESPONSE	n/a	n/a	n/a	n/a	n/a	n/a	n/a	blue
418.3551	1.0167	ITI	n/a	n/a	n/a	n/a	n/a	n/a	n/a	n/a
419.3718	0.5167	FIXCROSS	n/a	n/a	n/a	n/a	n/a	n/a	n/a	n/a
419.8884	0.9167	COLOR_NAME	68	Incongruent	żółty	yellow	czerwony	red	hit	n/a
420.7765	n/a	RESPONSE	n/a	n/a	n/a	n/a	n/a	n/a	n/a	yellow
420.8051	1.0167	ITI	n/a	n/a	n/a	n/a	n/a	n/a	n/a	n/a
421.8218	0.5167	FIXCROSS	n/a	n/a	n/a	n/a	n/a	n/a	n/a	n/a
422.3385	0.5333	COLOR_NAME	69	Neutral	żółty	yellow	Neutral	Neutral	hit	n/a
422.8529	n/a	RESPONSE	n/a	n/a	n/a	n/a	n/a	n/a	n/a	yellow
422.8718	1.0167	ITI	n/a	n/a	n/a	n/a	n/a	n/a	n/a	n/a
423.8885	0.5167	FIXCROSS	n/a	n/a	n/a	n/a	n/a	n/a	n/a	n/a
424.4051	0.7333	COLOR_NAME	70	Neutral	czerwony	red	Neutral	Neutral	hit	n/a
425.1051	n/a	RESPONSE	n/a	n/a	n/a	n/a	n/a	n/a	n/a	red
425.1385	1.0167	ITI	n/a	n/a	n/a	n/a	n/a	n/a	n/a	n/a
426.1552	0.5167	FIXCROSS	n/a	n/a	n/a	n/a	n/a	n/a	n/a	n/a
426.6718	0.7333	COLOR_NAME	71	Incongruent	żółty	yellow	niebieski	blue	hit	n/a
427.3733	n/a	RESPONSE	n/a	n/a	n/a	n/a	n/a	n/a	n/a	yellow
427.4052	1.0167	ITI	n/a	n/a	n/a	n/a	n/a	n/a	n/a	n/a
428.4218	0.5167	FIXCROSS	n/a	n/a	n/a	n/a	n/a	n/a	n/a	n/a
428.9385	0.6	COLOR_NAME	72	Incongruent	żółty	yellow	zielony	green	hit	n/a
429.5136	n/a	RESPONSE	n/a	n/a	n/a	n/a	n/a	n/a	n/a	yellow
429.5385	1.0333	ITI	n/a	n/a	n/a	n/a	n/a	n/a	n/a	n/a
432.8359	n/a	RESPONSE	n/a	n/a	n/a	n/a	n/a	n/a	n/a	n/a
