onset	duration	trial_type	trial_number	stroop_condition	stim_text(PL)	stim_text(eng)	stim_color(PL)	stim_color(eng)	response_type	response_color
0.0	n/a	RESPONSE	n/a	n/a	n/a	n/a	n/a	n/a	n/a	n/a
0.0678	1.0334	ITI	n/a	n/a	n/a	n/a	n/a	n/a	n/a	n/a
1.1012	0.5167	FIXCROSS	n/a	n/a	n/a	n/a	n/a	n/a	n/a	n/a
1.6179	1.5334	T_INK	1	Incongruent	czerwony	red	niebieski	blue	hit	n/a
3.1193	n/a	RESPONSE	n/a	n/a	n/a	n/a	n/a	n/a	n/a	blue
3.1512	0.5167	FEEDBACK	n/a	n/a	n/a	n/a	n/a	n/a	n/a	n/a
3.6679	1.0167	ITI	n/a	n/a	n/a	n/a	n/a	n/a	n/a	n/a
4.6846	0.5167	FIXCROSS	n/a	n/a	n/a	n/a	n/a	n/a	n/a	n/a
5.2013	1.3167	T_INK	2	Neutral	xxxxxxxx	xxxxxxxx	zielony	green	hit	n/a
6.4945	n/a	RESPONSE	n/a	n/a	n/a	n/a	n/a	n/a	n/a	green
6.5179	0.5167	FEEDBACK	n/a	n/a	n/a	n/a	n/a	n/a	n/a	n/a
7.0346	1.0167	ITI	n/a	n/a	n/a	n/a	n/a	n/a	n/a	n/a
8.0513	0.5167	FIXCROSS	n/a	n/a	n/a	n/a	n/a	n/a	n/a	n/a
8.568	1.1167	T_INK	3	Incongruent	żółty	yellow	czerwony	red	hit	n/a
9.6617	n/a	RESPONSE	n/a	n/a	n/a	n/a	n/a	n/a	n/a	red
9.6847	0.5167	FEEDBACK	n/a	n/a	n/a	n/a	n/a	n/a	n/a	n/a
10.2013	1.0167	ITI	n/a	n/a	n/a	n/a	n/a	n/a	n/a	n/a
11.218	0.5167	FIXCROSS	n/a	n/a	n/a	n/a	n/a	n/a	n/a	n/a
11.7347	1.6334	T_INK	4	Incongruent	niebieski	blue	czerwony	red	hit	n/a
13.3409	n/a	RESPONSE	n/a	n/a	n/a	n/a	n/a	n/a	n/a	red
13.368	0.5167	FEEDBACK	n/a	n/a	n/a	n/a	n/a	n/a	n/a	n/a
13.8847	1.0167	ITI	n/a	n/a	n/a	n/a	n/a	n/a	n/a	n/a
14.9014	0.5167	FIXCROSS	n/a	n/a	n/a	n/a	n/a	n/a	n/a	n/a
15.4181	1.1167	T_INK	5	Incongruent	żółty	yellow	zielony	green	hit	n/a
16.5082	n/a	RESPONSE	n/a	n/a	n/a	n/a	n/a	n/a	n/a	green
16.5347	0.5167	FEEDBACK	n/a	n/a	n/a	n/a	n/a	n/a	n/a	n/a
17.0514	1.0167	ITI	n/a	n/a	n/a	n/a	n/a	n/a	n/a	n/a
18.0681	0.5167	FIXCROSS	n/a	n/a	n/a	n/a	n/a	n/a	n/a	n/a
18.5848	1.3167	T_INK	6	Neutral	xxxxxxxxx	xxxxxxxxx	czerwony	red	hit	n/a
19.8674	n/a	RESPONSE	n/a	n/a	n/a	n/a	n/a	n/a	n/a	red
19.9015	0.5167	FEEDBACK	n/a	n/a	n/a	n/a	n/a	n/a	n/a	n/a
20.4181	1.0167	ITI	n/a	n/a	n/a	n/a	n/a	n/a	n/a	n/a
21.4348	0.5167	FIXCROSS	n/a	n/a	n/a	n/a	n/a	n/a	n/a	n/a
21.9515	1.1334	T_INK	7	Neutral	xxxxxxx	xxxxxxx	niebieski	blue	hit	n/a
23.0507	n/a	RESPONSE	n/a	n/a	n/a	n/a	n/a	n/a	n/a	blue
23.0848	0.5167	FEEDBACK	n/a	n/a	n/a	n/a	n/a	n/a	n/a	n/a
23.6015	1.0167	ITI	n/a	n/a	n/a	n/a	n/a	n/a	n/a	n/a
24.6182	0.5167	FIXCROSS	n/a	n/a	n/a	n/a	n/a	n/a	n/a	n/a
25.1349	1.15	T_INK	8	Incongruent	niebieski	blue	zielony	green	hit	n/a
26.2499	n/a	RESPONSE	n/a	n/a	n/a	n/a	n/a	n/a	n/a	green
26.2849	0.5167	FEEDBACK	n/a	n/a	n/a	n/a	n/a	n/a	n/a	n/a
26.8016	1.0167	ITI	n/a	n/a	n/a	n/a	n/a	n/a	n/a	n/a
27.8182	0.5167	FIXCROSS	n/a	n/a	n/a	n/a	n/a	n/a	n/a	n/a
28.3349	1.4333	T_INK	9	Incongruent	czerwony	red	zielony	green	hit	n/a
29.7371	n/a	RESPONSE	n/a	n/a	n/a	n/a	n/a	n/a	n/a	green
29.7683	0.5167	FEEDBACK	n/a	n/a	n/a	n/a	n/a	n/a	n/a	n/a
30.2849	1.0167	ITI	n/a	n/a	n/a	n/a	n/a	n/a	n/a	n/a
31.3016	0.5167	FIXCROSS	n/a	n/a	n/a	n/a	n/a	n/a	n/a	n/a
31.8183	1.2333	T_INK	10	Neutral	xxxxx	xxxxx	niebieski	blue	hit	n/a
33.0324	n/a	RESPONSE	n/a	n/a	n/a	n/a	n/a	n/a	n/a	blue
33.0516	0.5167	FEEDBACK	n/a	n/a	n/a	n/a	n/a	n/a	n/a	n/a
33.5683	1.0167	ITI	n/a	n/a	n/a	n/a	n/a	n/a	n/a	n/a
34.585	0.5167	FIXCROSS	n/a	n/a	n/a	n/a	n/a	n/a	n/a	n/a
35.1017	1.1167	T_INK	11	Incongruent	zielony	green	żółty	yellow	hit	n/a
36.1836	n/a	RESPONSE	n/a	n/a	n/a	n/a	n/a	n/a	n/a	yellow
36.2184	0.5167	FEEDBACK	n/a	n/a	n/a	n/a	n/a	n/a	n/a	n/a
36.735	1.0167	ITI	n/a	n/a	n/a	n/a	n/a	n/a	n/a	n/a
37.7517	0.5167	FIXCROSS	n/a	n/a	n/a	n/a	n/a	n/a	n/a	n/a
38.2684	1.1667	T_INK	12	Neutral	xxxxx	xxxxx	zielony	green	hit	n/a
39.4149	n/a	RESPONSE	n/a	n/a	n/a	n/a	n/a	n/a	n/a	green
39.4351	0.5167	FEEDBACK	n/a	n/a	n/a	n/a	n/a	n/a	n/a	n/a
39.9517	1.0334	ITI	n/a	n/a	n/a	n/a	n/a	n/a	n/a	n/a
46.7572	n/a	RESPONSE	n/a	n/a	n/a	n/a	n/a	n/a	n/a	n/a
46.8185	1.0167	ITI	n/a	n/a	n/a	n/a	n/a	n/a	n/a	n/a
47.8352	0.5167	FIXCROSS	n/a	n/a	n/a	n/a	n/a	n/a	n/a	n/a
48.3519	1.15	INK	1	Neutral	xxxxxxx	xxxxxxx	żółty	yellow	hit	n/a
49.4766	n/a	RESPONSE	n/a	n/a	n/a	n/a	n/a	n/a	n/a	yellow
49.5019	1.0167	ITI	n/a	n/a	n/a	n/a	n/a	n/a	n/a	n/a
50.5185	0.5167	FIXCROSS	n/a	n/a	n/a	n/a	n/a	n/a	n/a	n/a
51.0352	1.15	INK	2	Incongruent	żółty	yellow	niebieski	blue	hit	n/a
52.164	n/a	RESPONSE	n/a	n/a	n/a	n/a	n/a	n/a	n/a	blue
52.1852	1.0167	ITI	n/a	n/a	n/a	n/a	n/a	n/a	n/a	n/a
53.2019	0.5167	FIXCROSS	n/a	n/a	n/a	n/a	n/a	n/a	n/a	n/a
53.7186	1.3	INK	3	Incongruent	niebieski	blue	żółty	yellow	hit	n/a
54.9953	n/a	RESPONSE	n/a	n/a	n/a	n/a	n/a	n/a	n/a	yellow
55.0186	1.0167	ITI	n/a	n/a	n/a	n/a	n/a	n/a	n/a	n/a
56.0353	0.5167	FIXCROSS	n/a	n/a	n/a	n/a	n/a	n/a	n/a	n/a
56.552	1.1167	INK	4	Neutral	xxxxxxx	xxxxxxx	niebieski	blue	hit	n/a
57.6507	n/a	RESPONSE	n/a	n/a	n/a	n/a	n/a	n/a	n/a	blue
57.6687	1.0167	ITI	n/a	n/a	n/a	n/a	n/a	n/a	n/a	n/a
58.6853	0.5167	FIXCROSS	n/a	n/a	n/a	n/a	n/a	n/a	n/a	n/a
59.202	1.0167	INK	5	Incongruent	niebieski	blue	czerwony	red	hit	n/a
60.1941	n/a	RESPONSE	n/a	n/a	n/a	n/a	n/a	n/a	n/a	red
60.2187	1.0167	ITI	n/a	n/a	n/a	n/a	n/a	n/a	n/a	n/a
61.2354	0.5167	FIXCROSS	n/a	n/a	n/a	n/a	n/a	n/a	n/a	n/a
61.752	0.9833	INK	6	Neutral	xxxxx	xxxxx	zielony	green	hit	n/a
62.7055	n/a	RESPONSE	n/a	n/a	n/a	n/a	n/a	n/a	n/a	green
62.7354	1.0167	ITI	n/a	n/a	n/a	n/a	n/a	n/a	n/a	n/a
63.7521	0.5167	FIXCROSS	n/a	n/a	n/a	n/a	n/a	n/a	n/a	n/a
64.2687	1.0334	INK	7	Incongruent	czerwony	red	żółty	yellow	hit	n/a
65.2809	n/a	RESPONSE	n/a	n/a	n/a	n/a	n/a	n/a	n/a	yellow
65.3021	1.0167	ITI	n/a	n/a	n/a	n/a	n/a	n/a	n/a	n/a
66.3188	0.5167	FIXCROSS	n/a	n/a	n/a	n/a	n/a	n/a	n/a	n/a
66.8354	1.0833	INK	8	Neutral	xxxxxxxx	xxxxxxxx	niebieski	blue	hit	n/a
67.8883	n/a	RESPONSE	n/a	n/a	n/a	n/a	n/a	n/a	n/a	blue
67.9188	1.0167	ITI	n/a	n/a	n/a	n/a	n/a	n/a	n/a	n/a
68.9355	0.5167	FIXCROSS	n/a	n/a	n/a	n/a	n/a	n/a	n/a	n/a
69.4521	0.95	INK	9	Neutral	xxxxx	xxxxx	czerwony	red	hit	n/a
70.3838	n/a	RESPONSE	n/a	n/a	n/a	n/a	n/a	n/a	n/a	red
70.4022	1.0167	ITI	n/a	n/a	n/a	n/a	n/a	n/a	n/a	n/a
71.4188	0.5167	FIXCROSS	n/a	n/a	n/a	n/a	n/a	n/a	n/a	n/a
71.9355	0.9833	INK	10	Neutral	xxxxxxxx	xxxxxxxx	żółty	yellow	hit	n/a
72.8952	n/a	RESPONSE	n/a	n/a	n/a	n/a	n/a	n/a	n/a	yellow
72.9189	1.0167	ITI	n/a	n/a	n/a	n/a	n/a	n/a	n/a	n/a
73.9355	0.5167	FIXCROSS	n/a	n/a	n/a	n/a	n/a	n/a	n/a	n/a
74.4522	1.0333	INK	11	Incongruent	niebieski	blue	czerwony	red	hit	n/a
75.4546	n/a	RESPONSE	n/a	n/a	n/a	n/a	n/a	n/a	n/a	red
75.4856	1.0167	ITI	n/a	n/a	n/a	n/a	n/a	n/a	n/a	n/a
76.5022	0.5167	FIXCROSS	n/a	n/a	n/a	n/a	n/a	n/a	n/a	n/a
77.0189	0.9333	INK	12	Neutral	xxxxxxx	xxxxxxx	czerwony	red	hit	n/a
77.934	n/a	RESPONSE	n/a	n/a	n/a	n/a	n/a	n/a	n/a	red
77.9523	1.0167	ITI	n/a	n/a	n/a	n/a	n/a	n/a	n/a	n/a
78.9689	0.5167	FIXCROSS	n/a	n/a	n/a	n/a	n/a	n/a	n/a	n/a
79.4856	0.8834	INK	13	Neutral	xxxxxxxxx	xxxxxxxxx	czerwony	red	hit	n/a
80.3494	n/a	RESPONSE	n/a	n/a	n/a	n/a	n/a	n/a	n/a	red
80.369	1.0167	ITI	n/a	n/a	n/a	n/a	n/a	n/a	n/a	n/a
81.3856	0.5167	FIXCROSS	n/a	n/a	n/a	n/a	n/a	n/a	n/a	n/a
81.9023	1.1334	INK	14	Neutral	xxxxxxxx	xxxxxxxx	zielony	green	hit	n/a
83.0048	n/a	RESPONSE	n/a	n/a	n/a	n/a	n/a	n/a	n/a	green
83.0357	1.0167	ITI	n/a	n/a	n/a	n/a	n/a	n/a	n/a	n/a
84.0523	0.5167	FIXCROSS	n/a	n/a	n/a	n/a	n/a	n/a	n/a	n/a
84.569	0.9333	INK	15	Neutral	xxxxxxxxx	xxxxxxxxx	czerwony	red	hit	n/a
85.4842	n/a	RESPONSE	n/a	n/a	n/a	n/a	n/a	n/a	n/a	red
85.5024	1.0167	ITI	n/a	n/a	n/a	n/a	n/a	n/a	n/a	n/a
86.519	0.5167	FIXCROSS	n/a	n/a	n/a	n/a	n/a	n/a	n/a	n/a
87.0357	0.8	INK	16	Neutral	xxxxx	xxxxx	czerwony	red	hit	n/a
87.8037	n/a	RESPONSE	n/a	n/a	n/a	n/a	n/a	n/a	n/a	red
87.8357	1.0167	ITI	n/a	n/a	n/a	n/a	n/a	n/a	n/a	n/a
88.8524	0.5167	FIXCROSS	n/a	n/a	n/a	n/a	n/a	n/a	n/a	n/a
89.3691	0.9334	INK	17	Neutral	xxxxxxx	xxxxxxx	żółty	yellow	hit	n/a
90.2832	n/a	RESPONSE	n/a	n/a	n/a	n/a	n/a	n/a	n/a	yellow
90.3024	1.0167	ITI	n/a	n/a	n/a	n/a	n/a	n/a	n/a	n/a
91.3191	0.5167	FIXCROSS	n/a	n/a	n/a	n/a	n/a	n/a	n/a	n/a
91.8358	1.05	INK	18	Neutral	xxxxx	xxxxx	niebieski	blue	hit	n/a
92.8586	n/a	RESPONSE	n/a	n/a	n/a	n/a	n/a	n/a	n/a	blue
92.8858	1.0167	ITI	n/a	n/a	n/a	n/a	n/a	n/a	n/a	n/a
93.9025	0.5167	FIXCROSS	n/a	n/a	n/a	n/a	n/a	n/a	n/a	n/a
94.4192	1.4167	INK	19	Incongruent	czerwony	red	żółty	yellow	hit	n/a
95.8179	n/a	RESPONSE	n/a	n/a	n/a	n/a	n/a	n/a	n/a	yellow
95.8358	1.0167	ITI	n/a	n/a	n/a	n/a	n/a	n/a	n/a	n/a
96.8525	0.5167	FIXCROSS	n/a	n/a	n/a	n/a	n/a	n/a	n/a	n/a
97.3692	1.1833	INK	20	Incongruent	niebieski	blue	czerwony	red	hit	n/a
98.5212	n/a	RESPONSE	n/a	n/a	n/a	n/a	n/a	n/a	n/a	red
98.5525	1.0167	ITI	n/a	n/a	n/a	n/a	n/a	n/a	n/a	n/a
99.5692	0.5167	FIXCROSS	n/a	n/a	n/a	n/a	n/a	n/a	n/a	n/a
100.0859	0.8667	INK	21	Incongruent	żółty	yellow	czerwony	red	hit	n/a
100.9207	n/a	RESPONSE	n/a	n/a	n/a	n/a	n/a	n/a	n/a	red
100.9526	1.0167	ITI	n/a	n/a	n/a	n/a	n/a	n/a	n/a	n/a
101.9693	0.5167	FIXCROSS	n/a	n/a	n/a	n/a	n/a	n/a	n/a	n/a
102.4859	1.2667	INK	22	Incongruent	niebieski	blue	żółty	yellow	hit	n/a
103.7201	n/a	RESPONSE	n/a	n/a	n/a	n/a	n/a	n/a	n/a	yellow
103.7526	1.0167	ITI	n/a	n/a	n/a	n/a	n/a	n/a	n/a	n/a
104.7693	0.5167	FIXCROSS	n/a	n/a	n/a	n/a	n/a	n/a	n/a	n/a
105.286	0.9333	INK	23	Incongruent	żółty	yellow	czerwony	red	hit	n/a
106.1995	n/a	RESPONSE	n/a	n/a	n/a	n/a	n/a	n/a	n/a	red
106.2193	1.0167	ITI	n/a	n/a	n/a	n/a	n/a	n/a	n/a	n/a
107.236	0.5167	FIXCROSS	n/a	n/a	n/a	n/a	n/a	n/a	n/a	n/a
107.7527	0.9667	INK	24	Neutral	xxxxxxxx	xxxxxxxx	niebieski	blue	hit	n/a
108.6949	n/a	RESPONSE	n/a	n/a	n/a	n/a	n/a	n/a	n/a	blue
108.7193	1.0167	ITI	n/a	n/a	n/a	n/a	n/a	n/a	n/a	n/a
109.736	0.5167	FIXCROSS	n/a	n/a	n/a	n/a	n/a	n/a	n/a	n/a
110.2527	1.0334	INK	25	Incongruent	zielony	green	czerwony	red	hit	n/a
111.2543	n/a	RESPONSE	n/a	n/a	n/a	n/a	n/a	n/a	n/a	red
111.286	1.0167	ITI	n/a	n/a	n/a	n/a	n/a	n/a	n/a	n/a
112.3027	0.5167	FIXCROSS	n/a	n/a	n/a	n/a	n/a	n/a	n/a	n/a
112.8194	1.0667	INK	26	Neutral	xxxxx	xxxxx	czerwony	red	hit	n/a
113.8617	n/a	RESPONSE	n/a	n/a	n/a	n/a	n/a	n/a	n/a	red
113.8861	1.0167	ITI	n/a	n/a	n/a	n/a	n/a	n/a	n/a	n/a
114.9028	0.5167	FIXCROSS	n/a	n/a	n/a	n/a	n/a	n/a	n/a	n/a
115.4194	1.1	INK	27	Neutral	xxxxxxx	xxxxxxx	niebieski	blue	hit	n/a
116.5011	n/a	RESPONSE	n/a	n/a	n/a	n/a	n/a	n/a	n/a	blue
116.5194	1.0167	ITI	n/a	n/a	n/a	n/a	n/a	n/a	n/a	n/a
117.5361	0.5167	FIXCROSS	n/a	n/a	n/a	n/a	n/a	n/a	n/a	n/a
118.0528	1.0167	INK	28	Incongruent	żółty	yellow	zielony	green	hit	n/a
119.0445	n/a	RESPONSE	n/a	n/a	n/a	n/a	n/a	n/a	n/a	green
119.0695	1.0167	ITI	n/a	n/a	n/a	n/a	n/a	n/a	n/a	n/a
120.0862	0.5167	FIXCROSS	n/a	n/a	n/a	n/a	n/a	n/a	n/a	n/a
120.6028	0.9833	INK	29	Neutral	xxxxxxx	xxxxxxx	niebieski	blue	hit	n/a
121.5559	n/a	RESPONSE	n/a	n/a	n/a	n/a	n/a	n/a	n/a	blue
121.5862	1.0167	ITI	n/a	n/a	n/a	n/a	n/a	n/a	n/a	n/a
122.6029	0.5167	FIXCROSS	n/a	n/a	n/a	n/a	n/a	n/a	n/a	n/a
123.1195	1.0333	INK	30	Incongruent	czerwony	red	żółty	yellow	hit	n/a
124.1313	n/a	RESPONSE	n/a	n/a	n/a	n/a	n/a	n/a	n/a	yellow
124.1529	1.0167	ITI	n/a	n/a	n/a	n/a	n/a	n/a	n/a	n/a
125.1696	0.5167	FIXCROSS	n/a	n/a	n/a	n/a	n/a	n/a	n/a	n/a
125.6862	1.15	INK	31	Incongruent	niebieski	blue	zielony	green	hit	n/a
126.8187	n/a	RESPONSE	n/a	n/a	n/a	n/a	n/a	n/a	n/a	green
126.8363	1.0167	ITI	n/a	n/a	n/a	n/a	n/a	n/a	n/a	n/a
127.8529	0.5167	FIXCROSS	n/a	n/a	n/a	n/a	n/a	n/a	n/a	n/a
128.3696	0.9667	INK	32	Incongruent	niebieski	blue	żółty	yellow	hit	n/a
129.3142	n/a	RESPONSE	n/a	n/a	n/a	n/a	n/a	n/a	n/a	yellow
129.3363	1.0167	ITI	n/a	n/a	n/a	n/a	n/a	n/a	n/a	n/a
130.353	0.5167	FIXCROSS	n/a	n/a	n/a	n/a	n/a	n/a	n/a	n/a
130.8696	0.95	INK	33	Neutral	xxxxx	xxxxx	niebieski	blue	hit	n/a
131.7936	n/a	RESPONSE	n/a	n/a	n/a	n/a	n/a	n/a	n/a	blue
131.8197	1.0167	ITI	n/a	n/a	n/a	n/a	n/a	n/a	n/a	n/a
132.8363	0.5167	FIXCROSS	n/a	n/a	n/a	n/a	n/a	n/a	n/a	n/a
133.353	0.9167	INK	34	Incongruent	niebieski	blue	zielony	green	hit	n/a
134.241	n/a	RESPONSE	n/a	n/a	n/a	n/a	n/a	n/a	n/a	green
134.2697	1.0167	ITI	n/a	n/a	n/a	n/a	n/a	n/a	n/a	n/a
135.2864	0.5167	FIXCROSS	n/a	n/a	n/a	n/a	n/a	n/a	n/a	n/a
135.803	0.9667	INK	35	Neutral	xxxxxxxxx	xxxxxxxxx	żółty	yellow	hit	n/a
136.7525	n/a	RESPONSE	n/a	n/a	n/a	n/a	n/a	n/a	n/a	yellow
136.7697	1.0167	ITI	n/a	n/a	n/a	n/a	n/a	n/a	n/a	n/a
137.7864	0.5167	FIXCROSS	n/a	n/a	n/a	n/a	n/a	n/a	n/a	n/a
138.3031	1.05	INK	36	Neutral	xxxxxxxx	xxxxxxxx	zielony	green	hit	n/a
139.3279	n/a	RESPONSE	n/a	n/a	n/a	n/a	n/a	n/a	n/a	green
139.3531	1.0167	ITI	n/a	n/a	n/a	n/a	n/a	n/a	n/a	n/a
140.3698	0.5167	FIXCROSS	n/a	n/a	n/a	n/a	n/a	n/a	n/a	n/a
140.8865	0.9167	INK	37	Neutral	xxxxxxx	xxxxxxx	żółty	yellow	hit	n/a
141.7753	n/a	RESPONSE	n/a	n/a	n/a	n/a	n/a	n/a	n/a	yellow
141.8031	1.0167	ITI	n/a	n/a	n/a	n/a	n/a	n/a	n/a	n/a
142.8198	0.5167	FIXCROSS	n/a	n/a	n/a	n/a	n/a	n/a	n/a	n/a
143.3365	1.1167	INK	38	Incongruent	zielony	green	niebieski	blue	hit	n/a
144.4307	n/a	RESPONSE	n/a	n/a	n/a	n/a	n/a	n/a	n/a	blue
144.4532	1.0167	ITI	n/a	n/a	n/a	n/a	n/a	n/a	n/a	n/a
145.4698	0.5167	FIXCROSS	n/a	n/a	n/a	n/a	n/a	n/a	n/a	n/a
145.9865	0.95	INK	39	Incongruent	czerwony	red	zielony	green	hit	n/a
146.9101	n/a	RESPONSE	n/a	n/a	n/a	n/a	n/a	n/a	n/a	green
146.9365	1.0167	ITI	n/a	n/a	n/a	n/a	n/a	n/a	n/a	n/a
147.9532	0.5167	FIXCROSS	n/a	n/a	n/a	n/a	n/a	n/a	n/a	n/a
148.4699	0.9	INK	40	Incongruent	niebieski	blue	zielony	green	hit	n/a
149.3416	n/a	RESPONSE	n/a	n/a	n/a	n/a	n/a	n/a	n/a	green
149.3699	1.0167	ITI	n/a	n/a	n/a	n/a	n/a	n/a	n/a	n/a
150.3866	0.5167	FIXCROSS	n/a	n/a	n/a	n/a	n/a	n/a	n/a	n/a
150.9032	0.9833	INK	41	Neutral	xxxxxxxx	xxxxxxxx	zielony	green	hit	n/a
151.869	n/a	RESPONSE	n/a	n/a	n/a	n/a	n/a	n/a	n/a	green
151.8866	1.0167	ITI	n/a	n/a	n/a	n/a	n/a	n/a	n/a	n/a
152.9033	0.5167	FIXCROSS	n/a	n/a	n/a	n/a	n/a	n/a	n/a	n/a
153.42	0.8833	INK	42	Neutral	xxxxxxxx	xxxxxxxx	żółty	yellow	hit	n/a
154.2844	n/a	RESPONSE	n/a	n/a	n/a	n/a	n/a	n/a	n/a	yellow
154.3033	1.0167	ITI	n/a	n/a	n/a	n/a	n/a	n/a	n/a	n/a
155.32	0.5167	FIXCROSS	n/a	n/a	n/a	n/a	n/a	n/a	n/a	n/a
155.8367	0.95	INK	43	Neutral	xxxxxxxxx	xxxxxxxxx	żółty	yellow	hit	n/a
156.7638	n/a	RESPONSE	n/a	n/a	n/a	n/a	n/a	n/a	n/a	yellow
156.7867	1.0167	ITI	n/a	n/a	n/a	n/a	n/a	n/a	n/a	n/a
157.8034	0.5167	FIXCROSS	n/a	n/a	n/a	n/a	n/a	n/a	n/a	n/a
158.32	1.0833	INK	44	Incongruent	zielony	green	czerwony	red	hit	n/a
159.3712	n/a	RESPONSE	n/a	n/a	n/a	n/a	n/a	n/a	n/a	red
159.4034	1.0167	ITI	n/a	n/a	n/a	n/a	n/a	n/a	n/a	n/a
160.4201	0.5167	FIXCROSS	n/a	n/a	n/a	n/a	n/a	n/a	n/a	n/a
160.9367	0.95	INK	45	Incongruent	czerwony	red	niebieski	blue	hit	n/a
161.8667	n/a	RESPONSE	n/a	n/a	n/a	n/a	n/a	n/a	n/a	blue
161.8867	1.0167	ITI	n/a	n/a	n/a	n/a	n/a	n/a	n/a	n/a
162.9034	0.5167	FIXCROSS	n/a	n/a	n/a	n/a	n/a	n/a	n/a	n/a
163.4201	0.95	INK	46	Incongruent	zielony	green	niebieski	blue	hit	n/a
164.3461	n/a	RESPONSE	n/a	n/a	n/a	n/a	n/a	n/a	n/a	blue
164.3701	1.0167	ITI	n/a	n/a	n/a	n/a	n/a	n/a	n/a	n/a
165.3868	0.5167	FIXCROSS	n/a	n/a	n/a	n/a	n/a	n/a	n/a	n/a
165.9035	1.0167	INK	47	Neutral	xxxxxxxx	xxxxxxxx	żółty	yellow	hit	n/a
166.8895	n/a	RESPONSE	n/a	n/a	n/a	n/a	n/a	n/a	n/a	yellow
166.9201	1.0167	ITI	n/a	n/a	n/a	n/a	n/a	n/a	n/a	n/a
167.9368	0.5167	FIXCROSS	n/a	n/a	n/a	n/a	n/a	n/a	n/a	n/a
168.4535	0.9333	INK	48	Incongruent	zielony	green	żółty	yellow	hit	n/a
169.3689	n/a	RESPONSE	n/a	n/a	n/a	n/a	n/a	n/a	n/a	yellow
169.3868	1.0167	ITI	n/a	n/a	n/a	n/a	n/a	n/a	n/a	n/a
170.4035	0.5167	FIXCROSS	n/a	n/a	n/a	n/a	n/a	n/a	n/a	n/a
170.9202	0.9667	INK	49	Incongruent	czerwony	red	niebieski	blue	hit	n/a
171.8643	n/a	RESPONSE	n/a	n/a	n/a	n/a	n/a	n/a	n/a	blue
171.8869	1.0167	ITI	n/a	n/a	n/a	n/a	n/a	n/a	n/a	n/a
172.9035	0.5167	FIXCROSS	n/a	n/a	n/a	n/a	n/a	n/a	n/a	n/a
173.4202	0.9334	INK	50	Neutral	xxxxxxxxx	xxxxxxxxx	żółty	yellow	hit	n/a
174.3278	n/a	RESPONSE	n/a	n/a	n/a	n/a	n/a	n/a	n/a	yellow
174.3536	1.0167	ITI	n/a	n/a	n/a	n/a	n/a	n/a	n/a	n/a
175.3702	0.5167	FIXCROSS	n/a	n/a	n/a	n/a	n/a	n/a	n/a	n/a
175.8869	0.9333	INK	51	Incongruent	czerwony	red	niebieski	blue	hit	n/a
176.7912	n/a	RESPONSE	n/a	n/a	n/a	n/a	n/a	n/a	n/a	blue
176.8203	1.0167	ITI	n/a	n/a	n/a	n/a	n/a	n/a	n/a	n/a
177.837	0.5167	FIXCROSS	n/a	n/a	n/a	n/a	n/a	n/a	n/a	n/a
178.3536	0.9334	INK	52	Incongruent	zielony	green	żółty	yellow	hit	n/a
179.2547	n/a	RESPONSE	n/a	n/a	n/a	n/a	n/a	n/a	n/a	yellow
179.287	1.0167	ITI	n/a	n/a	n/a	n/a	n/a	n/a	n/a	n/a
180.3036	0.5167	FIXCROSS	n/a	n/a	n/a	n/a	n/a	n/a	n/a	n/a
180.8203	0.9667	INK	53	Neutral	xxxxx	xxxxx	zielony	green	hit	n/a
181.766	n/a	RESPONSE	n/a	n/a	n/a	n/a	n/a	n/a	n/a	green
181.787	1.0167	ITI	n/a	n/a	n/a	n/a	n/a	n/a	n/a	n/a
182.8037	0.5167	FIXCROSS	n/a	n/a	n/a	n/a	n/a	n/a	n/a	n/a
183.3204	0.8333	INK	54	Incongruent	czerwony	red	zielony	green	hit	n/a
184.1335	n/a	RESPONSE	n/a	n/a	n/a	n/a	n/a	n/a	n/a	green
184.1537	1.0167	ITI	n/a	n/a	n/a	n/a	n/a	n/a	n/a	n/a
185.1704	0.5167	FIXCROSS	n/a	n/a	n/a	n/a	n/a	n/a	n/a	n/a
185.687	1.1834	INK	55	Neutral	xxxxxxxxx	xxxxxxxxx	czerwony	red	hit	n/a
186.8529	n/a	RESPONSE	n/a	n/a	n/a	n/a	n/a	n/a	n/a	red
186.8704	1.0167	ITI	n/a	n/a	n/a	n/a	n/a	n/a	n/a	n/a
187.8871	0.5167	FIXCROSS	n/a	n/a	n/a	n/a	n/a	n/a	n/a	n/a
188.4038	0.95	INK	56	Neutral	xxxxxxxx	xxxxxxxx	niebieski	blue	hit	n/a
189.3323	n/a	RESPONSE	n/a	n/a	n/a	n/a	n/a	n/a	n/a	blue
189.3538	1.0167	ITI	n/a	n/a	n/a	n/a	n/a	n/a	n/a	n/a
190.3704	0.5167	FIXCROSS	n/a	n/a	n/a	n/a	n/a	n/a	n/a	n/a
190.8871	0.95	INK	57	Incongruent	czerwony	red	zielony	green	hit	n/a
191.8117	n/a	RESPONSE	n/a	n/a	n/a	n/a	n/a	n/a	n/a	green
191.8371	1.0167	ITI	n/a	n/a	n/a	n/a	n/a	n/a	n/a	n/a
192.8538	0.5167	FIXCROSS	n/a	n/a	n/a	n/a	n/a	n/a	n/a	n/a
193.3705	0.9167	INK	58	Incongruent	żółty	yellow	zielony	green	hit	n/a
194.2592	n/a	RESPONSE	n/a	n/a	n/a	n/a	n/a	n/a	n/a	green
194.2872	1.0167	ITI	n/a	n/a	n/a	n/a	n/a	n/a	n/a	n/a
195.3038	0.5167	FIXCROSS	n/a	n/a	n/a	n/a	n/a	n/a	n/a	n/a
195.8205	0.9833	INK	59	Neutral	xxxxxxx	xxxxxxx	czerwony	red	hit	n/a
196.7866	n/a	RESPONSE	n/a	n/a	n/a	n/a	n/a	n/a	n/a	red
196.8039	1.0167	ITI	n/a	n/a	n/a	n/a	n/a	n/a	n/a	n/a
197.8205	0.5167	FIXCROSS	n/a	n/a	n/a	n/a	n/a	n/a	n/a	n/a
198.3372	0.8833	INK	60	Neutral	xxxxx	xxxxx	niebieski	blue	hit	n/a
199.202	n/a	RESPONSE	n/a	n/a	n/a	n/a	n/a	n/a	n/a	blue
199.2206	1.0167	ITI	n/a	n/a	n/a	n/a	n/a	n/a	n/a	n/a
200.2372	0.5167	FIXCROSS	n/a	n/a	n/a	n/a	n/a	n/a	n/a	n/a
200.7539	0.8167	INK	61	Neutral	xxxxxxxxx	xxxxxxxxx	zielony	green	hit	n/a
201.5375	n/a	RESPONSE	n/a	n/a	n/a	n/a	n/a	n/a	n/a	green
201.5706	1.0167	ITI	n/a	n/a	n/a	n/a	n/a	n/a	n/a	n/a
202.5873	0.5167	FIXCROSS	n/a	n/a	n/a	n/a	n/a	n/a	n/a	n/a
203.1039	1.05	INK	62	Incongruent	zielony	green	czerwony	red	hit	n/a
204.1289	n/a	RESPONSE	n/a	n/a	n/a	n/a	n/a	n/a	n/a	red
204.154	1.0167	ITI	n/a	n/a	n/a	n/a	n/a	n/a	n/a	n/a
205.1706	0.5167	FIXCROSS	n/a	n/a	n/a	n/a	n/a	n/a	n/a	n/a
205.6873	1.4	INK	63	Incongruent	żółty	yellow	zielony	green	hit	n/a
207.0562	n/a	RESPONSE	n/a	n/a	n/a	n/a	n/a	n/a	n/a	green
207.0873	1.0167	ITI	n/a	n/a	n/a	n/a	n/a	n/a	n/a	n/a
208.104	0.5167	FIXCROSS	n/a	n/a	n/a	n/a	n/a	n/a	n/a	n/a
208.6207	1.05	INK	64	Incongruent	żółty	yellow	niebieski	blue	hit	n/a
209.6476	n/a	RESPONSE	n/a	n/a	n/a	n/a	n/a	n/a	n/a	blue
209.6707	1.0167	ITI	n/a	n/a	n/a	n/a	n/a	n/a	n/a	n/a
210.6874	0.5167	FIXCROSS	n/a	n/a	n/a	n/a	n/a	n/a	n/a	n/a
211.2041	0.8333	INK	65	Neutral	xxxxxxxxx	xxxxxxxxx	zielony	green	hit	n/a
212.0151	n/a	RESPONSE	n/a	n/a	n/a	n/a	n/a	n/a	n/a	green
212.0374	1.0167	ITI	n/a	n/a	n/a	n/a	n/a	n/a	n/a	n/a
213.0541	0.5167	FIXCROSS	n/a	n/a	n/a	n/a	n/a	n/a	n/a	n/a
213.5708	0.9167	INK	66	Incongruent	żółty	yellow	czerwony	red	hit	n/a
214.4625	n/a	RESPONSE	n/a	n/a	n/a	n/a	n/a	n/a	n/a	red
214.4874	1.0167	ITI	n/a	n/a	n/a	n/a	n/a	n/a	n/a	n/a
215.5041	0.5167	FIXCROSS	n/a	n/a	n/a	n/a	n/a	n/a	n/a	n/a
216.0208	0.8	INK	67	Neutral	xxxxxxxxx	xxxxxxxxx	zielony	green	hit	n/a
216.798	n/a	RESPONSE	n/a	n/a	n/a	n/a	n/a	n/a	n/a	green
216.8208	1.0167	ITI	n/a	n/a	n/a	n/a	n/a	n/a	n/a	n/a
217.8375	0.5167	FIXCROSS	n/a	n/a	n/a	n/a	n/a	n/a	n/a	n/a
218.3542	1.1167	INK	68	Neutral	xxxxxxx	xxxxxxx	czerwony	red	hit	n/a
219.4534	n/a	RESPONSE	n/a	n/a	n/a	n/a	n/a	n/a	n/a	red
219.4708	1.0167	ITI	n/a	n/a	n/a	n/a	n/a	n/a	n/a	n/a
220.4875	0.5167	FIXCROSS	n/a	n/a	n/a	n/a	n/a	n/a	n/a	n/a
221.0042	0.8667	INK	69	Incongruent	żółty	yellow	niebieski	blue	hit	n/a
221.8528	n/a	RESPONSE	n/a	n/a	n/a	n/a	n/a	n/a	n/a	blue
221.8709	1.0167	ITI	n/a	n/a	n/a	n/a	n/a	n/a	n/a	n/a
222.8875	0.5167	FIXCROSS	n/a	n/a	n/a	n/a	n/a	n/a	n/a	n/a
223.4042	0.9833	INK	70	Incongruent	zielony	green	niebieski	blue	hit	n/a
224.3642	n/a	RESPONSE	n/a	n/a	n/a	n/a	n/a	n/a	n/a	blue
224.3876	1.0167	ITI	n/a	n/a	n/a	n/a	n/a	n/a	n/a	n/a
225.4043	0.5167	FIXCROSS	n/a	n/a	n/a	n/a	n/a	n/a	n/a	n/a
225.9209	1.1	INK	71	Incongruent	zielony	green	żółty	yellow	hit	n/a
227.0036	n/a	RESPONSE	n/a	n/a	n/a	n/a	n/a	n/a	n/a	yellow
227.0209	1.0167	ITI	n/a	n/a	n/a	n/a	n/a	n/a	n/a	n/a
228.0376	0.5167	FIXCROSS	n/a	n/a	n/a	n/a	n/a	n/a	n/a	n/a
228.5543	0.9833	INK	72	Neutral	xxxxx	xxxxx	zielony	green	hit	n/a
229.5151	n/a	RESPONSE	n/a	n/a	n/a	n/a	n/a	n/a	n/a	green
229.5376	1.0834	ITI	n/a	n/a	n/a	n/a	n/a	n/a	n/a	n/a
251.478	n/a	RESPONSE	n/a	n/a	n/a	n/a	n/a	n/a	n/a	n/a
251.5379	1.0167	ITI	n/a	n/a	n/a	n/a	n/a	n/a	n/a	n/a
252.5546	0.5167	FIXCROSS	n/a	n/a	n/a	n/a	n/a	n/a	n/a	n/a
253.0713	1.45	T_COLOR_NAME	1	Neutral	żółty	yellow	Neutral	Neutral	hit	n/a
254.4853	n/a	RESPONSE	n/a	n/a	n/a	n/a	n/a	n/a	n/a	yellow
254.5213	0.5167	FEEDBACK	n/a	n/a	n/a	n/a	n/a	n/a	n/a	n/a
255.038	1.0167	ITI	n/a	n/a	n/a	n/a	n/a	n/a	n/a	n/a
256.0547	0.5167	FIXCROSS	n/a	n/a	n/a	n/a	n/a	n/a	n/a	n/a
256.5713	1.5	T_COLOR_NAME	2	Incongruent	czerwony	red	niebieski	blue	hit	n/a
258.0365	n/a	RESPONSE	n/a	n/a	n/a	n/a	n/a	n/a	n/a	red
258.0714	0.5167	FEEDBACK	n/a	n/a	n/a	n/a	n/a	n/a	n/a	n/a
258.588	1.0167	ITI	n/a	n/a	n/a	n/a	n/a	n/a	n/a	n/a
259.6047	0.5167	FIXCROSS	n/a	n/a	n/a	n/a	n/a	n/a	n/a	n/a
260.1214	1.2	T_COLOR_NAME	3	Incongruent	żółty	yellow	czerwony	red	hit	n/a
261.2997	n/a	RESPONSE	n/a	n/a	n/a	n/a	n/a	n/a	n/a	yellow
261.3214	0.5167	FEEDBACK	n/a	n/a	n/a	n/a	n/a	n/a	n/a	n/a
261.8381	1.0167	ITI	n/a	n/a	n/a	n/a	n/a	n/a	n/a	n/a
262.8548	0.5167	FIXCROSS	n/a	n/a	n/a	n/a	n/a	n/a	n/a	n/a
263.3714	0.9667	T_COLOR_NAME	4	Neutral	czerwony	red	Neutral	Neutral	hit	n/a
264.307	n/a	RESPONSE	n/a	n/a	n/a	n/a	n/a	n/a	n/a	red
264.3381	0.5167	FEEDBACK	n/a	n/a	n/a	n/a	n/a	n/a	n/a	n/a
264.8548	1.0167	ITI	n/a	n/a	n/a	n/a	n/a	n/a	n/a	n/a
265.8715	0.5167	FIXCROSS	n/a	n/a	n/a	n/a	n/a	n/a	n/a	n/a
266.3881	1.0667	T_COLOR_NAME	5	Incongruent	niebieski	blue	zielony	green	hit	n/a
267.4263	n/a	RESPONSE	n/a	n/a	n/a	n/a	n/a	n/a	n/a	blue
267.4548	0.5167	FEEDBACK	n/a	n/a	n/a	n/a	n/a	n/a	n/a	n/a
267.9715	1.0167	ITI	n/a	n/a	n/a	n/a	n/a	n/a	n/a	n/a
268.9882	0.5167	FIXCROSS	n/a	n/a	n/a	n/a	n/a	n/a	n/a	n/a
269.5048	1.0334	T_COLOR_NAME	6	Incongruent	żółty	yellow	zielony	green	hit	n/a
270.5136	n/a	RESPONSE	n/a	n/a	n/a	n/a	n/a	n/a	n/a	yellow
270.5382	0.5167	FEEDBACK	n/a	n/a	n/a	n/a	n/a	n/a	n/a	n/a
271.0549	1.0167	ITI	n/a	n/a	n/a	n/a	n/a	n/a	n/a	n/a
272.0715	0.5167	FIXCROSS	n/a	n/a	n/a	n/a	n/a	n/a	n/a	n/a
272.5882	1.0	T_COLOR_NAME	7	Neutral	żółty	yellow	Neutral	Neutral	hit	n/a
273.5689	n/a	RESPONSE	n/a	n/a	n/a	n/a	n/a	n/a	n/a	yellow
273.5882	0.5167	FEEDBACK	n/a	n/a	n/a	n/a	n/a	n/a	n/a	n/a
274.1049	1.0167	ITI	n/a	n/a	n/a	n/a	n/a	n/a	n/a	n/a
275.1216	0.5167	FIXCROSS	n/a	n/a	n/a	n/a	n/a	n/a	n/a	n/a
275.6383	0.9833	T_COLOR_NAME	8	Incongruent	zielony	green	żółty	yellow	hit	n/a
276.5922	n/a	RESPONSE	n/a	n/a	n/a	n/a	n/a	n/a	n/a	green
276.6216	0.5167	FEEDBACK	n/a	n/a	n/a	n/a	n/a	n/a	n/a	n/a
277.1383	1.0167	ITI	n/a	n/a	n/a	n/a	n/a	n/a	n/a	n/a
278.155	0.5167	FIXCROSS	n/a	n/a	n/a	n/a	n/a	n/a	n/a	n/a
278.6716	0.9833	T_COLOR_NAME	9	Incongruent	niebieski	blue	czerwony	red	hit	n/a
279.6315	n/a	RESPONSE	n/a	n/a	n/a	n/a	n/a	n/a	n/a	blue
279.655	0.5167	FEEDBACK	n/a	n/a	n/a	n/a	n/a	n/a	n/a	n/a
280.1717	1.0167	ITI	n/a	n/a	n/a	n/a	n/a	n/a	n/a	n/a
281.1883	0.5167	FIXCROSS	n/a	n/a	n/a	n/a	n/a	n/a	n/a	n/a
281.705	0.8333	T_COLOR_NAME	10	Neutral	zielony	green	Neutral	Neutral	hit	n/a
282.5109	n/a	RESPONSE	n/a	n/a	n/a	n/a	n/a	n/a	n/a	green
282.5383	0.5167	FEEDBACK	n/a	n/a	n/a	n/a	n/a	n/a	n/a	n/a
283.055	1.0167	ITI	n/a	n/a	n/a	n/a	n/a	n/a	n/a	n/a
284.0717	0.5167	FIXCROSS	n/a	n/a	n/a	n/a	n/a	n/a	n/a	n/a
284.5884	0.8834	T_COLOR_NAME	11	Neutral	niebieski	blue	Neutral	Neutral	hit	n/a
285.4381	n/a	RESPONSE	n/a	n/a	n/a	n/a	n/a	n/a	n/a	blue
285.4717	0.5167	FEEDBACK	n/a	n/a	n/a	n/a	n/a	n/a	n/a	n/a
285.9884	1.0167	ITI	n/a	n/a	n/a	n/a	n/a	n/a	n/a	n/a
287.0051	0.5167	FIXCROSS	n/a	n/a	n/a	n/a	n/a	n/a	n/a	n/a
287.5217	0.9	T_COLOR_NAME	12	Incongruent	czerwony	red	zielony	green	hit	n/a
288.3975	n/a	RESPONSE	n/a	n/a	n/a	n/a	n/a	n/a	n/a	red
288.4218	0.5167	FEEDBACK	n/a	n/a	n/a	n/a	n/a	n/a	n/a	n/a
288.9384	1.0333	ITI	n/a	n/a	n/a	n/a	n/a	n/a	n/a	n/a
293.7083	n/a	RESPONSE	n/a	n/a	n/a	n/a	n/a	n/a	n/a	n/a
293.7718	1.0167	ITI	n/a	n/a	n/a	n/a	n/a	n/a	n/a	n/a
294.7885	0.5167	FIXCROSS	n/a	n/a	n/a	n/a	n/a	n/a	n/a	n/a
295.3052	0.8999	COLOR_NAME	1	Neutral	żółty	yellow	Neutral	Neutral	hit	n/a
296.1877	n/a	RESPONSE	n/a	n/a	n/a	n/a	n/a	n/a	n/a	yellow
296.2051	1.0168	ITI	n/a	n/a	n/a	n/a	n/a	n/a	n/a	n/a
297.2219	0.5167	FIXCROSS	n/a	n/a	n/a	n/a	n/a	n/a	n/a	n/a
297.7386	1.0167	COLOR_NAME	2	Incongruent	czerwony	red	niebieski	blue	hit	n/a
298.7311	n/a	RESPONSE	n/a	n/a	n/a	n/a	n/a	n/a	n/a	red
298.7552	1.0167	ITI	n/a	n/a	n/a	n/a	n/a	n/a	n/a	n/a
299.7719	0.5167	FIXCROSS	n/a	n/a	n/a	n/a	n/a	n/a	n/a	n/a
300.2886	0.9833	COLOR_NAME	3	Neutral	zielony	green	Neutral	Neutral	hit	n/a
301.2426	n/a	RESPONSE	n/a	n/a	n/a	n/a	n/a	n/a	n/a	green
301.2719	1.0167	ITI	n/a	n/a	n/a	n/a	n/a	n/a	n/a	n/a
302.2886	0.5167	FIXCROSS	n/a	n/a	n/a	n/a	n/a	n/a	n/a	n/a
302.8053	0.95	COLOR_NAME	4	Neutral	żółty	yellow	Neutral	Neutral	hit	n/a
303.7219	n/a	RESPONSE	n/a	n/a	n/a	n/a	n/a	n/a	n/a	yellow
303.7553	1.0167	ITI	n/a	n/a	n/a	n/a	n/a	n/a	n/a	n/a
304.772	0.5167	FIXCROSS	n/a	n/a	n/a	n/a	n/a	n/a	n/a	n/a
305.2887	0.9833	COLOR_NAME	5	Incongruent	zielony	green	niebieski	blue	hit	n/a
306.2494	n/a	RESPONSE	n/a	n/a	n/a	n/a	n/a	n/a	n/a	green
306.272	1.0167	ITI	n/a	n/a	n/a	n/a	n/a	n/a	n/a	n/a
307.2887	0.5167	FIXCROSS	n/a	n/a	n/a	n/a	n/a	n/a	n/a	n/a
307.8054	1.0	COLOR_NAME	6	Neutral	niebieski	blue	Neutral	Neutral	hit	n/a
308.7769	n/a	RESPONSE	n/a	n/a	n/a	n/a	n/a	n/a	n/a	blue
308.8054	1.0167	ITI	n/a	n/a	n/a	n/a	n/a	n/a	n/a	n/a
309.822	0.5167	FIXCROSS	n/a	n/a	n/a	n/a	n/a	n/a	n/a	n/a
310.3387	1.8667	COLOR_NAME	7	Incongruent	żółty	yellow	zielony	green	hit	n/a
312.184	n/a	RESPONSE	n/a	n/a	n/a	n/a	n/a	n/a	n/a	yellow
312.2054	1.0167	ITI	n/a	n/a	n/a	n/a	n/a	n/a	n/a	n/a
313.2221	0.5167	FIXCROSS	n/a	n/a	n/a	n/a	n/a	n/a	n/a	n/a
313.7388	0.85	COLOR_NAME	8	Incongruent	zielony	green	niebieski	blue	hit	n/a
314.5674	n/a	RESPONSE	n/a	n/a	n/a	n/a	n/a	n/a	n/a	green
314.5888	1.0167	ITI	n/a	n/a	n/a	n/a	n/a	n/a	n/a	n/a
315.6055	0.5167	FIXCROSS	n/a	n/a	n/a	n/a	n/a	n/a	n/a	n/a
316.1221	0.9833	COLOR_NAME	9	Neutral	niebieski	blue	Neutral	Neutral	hit	n/a
317.0789	n/a	RESPONSE	n/a	n/a	n/a	n/a	n/a	n/a	n/a	blue
317.1055	1.0167	ITI	n/a	n/a	n/a	n/a	n/a	n/a	n/a	n/a
318.1222	0.5167	FIXCROSS	n/a	n/a	n/a	n/a	n/a	n/a	n/a	n/a
318.6388	1.05	COLOR_NAME	10	Incongruent	czerwony	red	zielony	green	hit	n/a
319.6703	n/a	RESPONSE	n/a	n/a	n/a	n/a	n/a	n/a	n/a	red
319.6888	1.0167	ITI	n/a	n/a	n/a	n/a	n/a	n/a	n/a	n/a
320.7055	0.5167	FIXCROSS	n/a	n/a	n/a	n/a	n/a	n/a	n/a	n/a
321.2222	0.9	COLOR_NAME	11	Neutral	czerwony	red	Neutral	Neutral	hit	n/a
322.1017	n/a	RESPONSE	n/a	n/a	n/a	n/a	n/a	n/a	n/a	red
322.1222	1.0167	ITI	n/a	n/a	n/a	n/a	n/a	n/a	n/a	n/a
323.1389	0.5167	FIXCROSS	n/a	n/a	n/a	n/a	n/a	n/a	n/a	n/a
323.6556	1.1833	COLOR_NAME	12	Neutral	zielony	green	Neutral	Neutral	hit	n/a
324.8051	n/a	RESPONSE	n/a	n/a	n/a	n/a	n/a	n/a	n/a	green
324.8389	1.0167	ITI	n/a	n/a	n/a	n/a	n/a	n/a	n/a	n/a
325.8556	0.5167	FIXCROSS	n/a	n/a	n/a	n/a	n/a	n/a	n/a	n/a
326.3723	0.8667	COLOR_NAME	13	Neutral	niebieski	blue	Neutral	Neutral	hit	n/a
327.2046	n/a	RESPONSE	n/a	n/a	n/a	n/a	n/a	n/a	n/a	blue
327.2389	1.0167	ITI	n/a	n/a	n/a	n/a	n/a	n/a	n/a	n/a
328.2556	0.5167	FIXCROSS	n/a	n/a	n/a	n/a	n/a	n/a	n/a	n/a
328.7723	1.0667	COLOR_NAME	14	Incongruent	niebieski	blue	czerwony	red	hit	n/a
329.812	n/a	RESPONSE	n/a	n/a	n/a	n/a	n/a	n/a	n/a	blue
329.839	1.0167	ITI	n/a	n/a	n/a	n/a	n/a	n/a	n/a	n/a
330.8557	0.5167	FIXCROSS	n/a	n/a	n/a	n/a	n/a	n/a	n/a	n/a
331.3723	1.0833	COLOR_NAME	15	Neutral	zielony	green	Neutral	Neutral	hit	n/a
332.4354	n/a	RESPONSE	n/a	n/a	n/a	n/a	n/a	n/a	n/a	green
332.4557	1.0167	ITI	n/a	n/a	n/a	n/a	n/a	n/a	n/a	n/a
333.4724	0.5167	FIXCROSS	n/a	n/a	n/a	n/a	n/a	n/a	n/a	n/a
333.989	0.9167	COLOR_NAME	16	Incongruent	czerwony	red	niebieski	blue	hit	n/a
334.8828	n/a	RESPONSE	n/a	n/a	n/a	n/a	n/a	n/a	n/a	red
334.9057	1.0167	ITI	n/a	n/a	n/a	n/a	n/a	n/a	n/a	n/a
335.9224	0.5167	FIXCROSS	n/a	n/a	n/a	n/a	n/a	n/a	n/a	n/a
336.4391	0.9167	COLOR_NAME	17	Neutral	zielony	green	Neutral	Neutral	hit	n/a
337.3302	n/a	RESPONSE	n/a	n/a	n/a	n/a	n/a	n/a	n/a	green
337.3557	1.0167	ITI	n/a	n/a	n/a	n/a	n/a	n/a	n/a	n/a
338.3724	0.5167	FIXCROSS	n/a	n/a	n/a	n/a	n/a	n/a	n/a	n/a
338.8891	1.8334	COLOR_NAME	18	Incongruent	żółty	yellow	czerwony	red	hit	n/a
340.6895	n/a	RESPONSE	n/a	n/a	n/a	n/a	n/a	n/a	n/a	yellow
340.7225	1.0167	ITI	n/a	n/a	n/a	n/a	n/a	n/a	n/a	n/a
341.7391	0.5167	FIXCROSS	n/a	n/a	n/a	n/a	n/a	n/a	n/a	n/a
342.2558	1.0167	COLOR_NAME	19	Incongruent	niebieski	blue	zielony	green	hit	n/a
343.2489	n/a	RESPONSE	n/a	n/a	n/a	n/a	n/a	n/a	n/a	blue
343.2725	1.0167	ITI	n/a	n/a	n/a	n/a	n/a	n/a	n/a	n/a
344.2892	0.5167	FIXCROSS	n/a	n/a	n/a	n/a	n/a	n/a	n/a	n/a
344.8059	1.0	COLOR_NAME	20	Incongruent	żółty	yellow	zielony	green	hit	n/a
345.7763	n/a	RESPONSE	n/a	n/a	n/a	n/a	n/a	n/a	n/a	yellow
345.8059	1.0167	ITI	n/a	n/a	n/a	n/a	n/a	n/a	n/a	n/a
346.8225	0.5167	FIXCROSS	n/a	n/a	n/a	n/a	n/a	n/a	n/a	n/a
347.3392	1.0	COLOR_NAME	21	Neutral	żółty	yellow	Neutral	Neutral	hit	n/a
348.3197	n/a	RESPONSE	n/a	n/a	n/a	n/a	n/a	n/a	n/a	yellow
348.3392	1.0167	ITI	n/a	n/a	n/a	n/a	n/a	n/a	n/a	n/a
349.3559	0.5167	FIXCROSS	n/a	n/a	n/a	n/a	n/a	n/a	n/a	n/a
349.8726	0.9334	COLOR_NAME	22	Neutral	żółty	yellow	Neutral	Neutral	hit	n/a
350.7831	n/a	RESPONSE	n/a	n/a	n/a	n/a	n/a	n/a	n/a	yellow
350.8059	1.0167	ITI	n/a	n/a	n/a	n/a	n/a	n/a	n/a	n/a
351.8226	0.5167	FIXCROSS	n/a	n/a	n/a	n/a	n/a	n/a	n/a	n/a
352.3393	0.8334	COLOR_NAME	23	Neutral	niebieski	blue	Neutral	Neutral	hit	n/a
353.1506	n/a	RESPONSE	n/a	n/a	n/a	n/a	n/a	n/a	n/a	blue
353.1726	1.0167	ITI	n/a	n/a	n/a	n/a	n/a	n/a	n/a	n/a
354.1893	0.5167	FIXCROSS	n/a	n/a	n/a	n/a	n/a	n/a	n/a	n/a
354.706	0.75	COLOR_NAME	24	Neutral	czerwony	red	Neutral	Neutral	hit	n/a
355.4381	n/a	RESPONSE	n/a	n/a	n/a	n/a	n/a	n/a	n/a	red
355.456	1.0167	ITI	n/a	n/a	n/a	n/a	n/a	n/a	n/a	n/a
356.4727	0.5167	FIXCROSS	n/a	n/a	n/a	n/a	n/a	n/a	n/a	n/a
356.9893	0.8833	COLOR_NAME	25	Incongruent	czerwony	red	żółty	yellow	hit	n/a
357.8535	n/a	RESPONSE	n/a	n/a	n/a	n/a	n/a	n/a	n/a	red
357.8727	1.0167	ITI	n/a	n/a	n/a	n/a	n/a	n/a	n/a	n/a
358.8894	0.5167	FIXCROSS	n/a	n/a	n/a	n/a	n/a	n/a	n/a	n/a
359.406	0.9667	COLOR_NAME	26	Incongruent	niebieski	blue	czerwony	red	hit	n/a
360.3489	n/a	RESPONSE	n/a	n/a	n/a	n/a	n/a	n/a	n/a	blue
360.3727	1.0167	ITI	n/a	n/a	n/a	n/a	n/a	n/a	n/a	n/a
361.3894	0.5165	FIXCROSS	n/a	n/a	n/a	n/a	n/a	n/a	n/a	n/a
361.9059	0.8835	COLOR_NAME	27	Neutral	niebieski	blue	Neutral	Neutral	hit	n/a
362.7644	n/a	RESPONSE	n/a	n/a	n/a	n/a	n/a	n/a	n/a	blue
362.7894	1.0167	ITI	n/a	n/a	n/a	n/a	n/a	n/a	n/a	n/a
363.8061	0.5167	FIXCROSS	n/a	n/a	n/a	n/a	n/a	n/a	n/a	n/a
364.3228	0.9333	COLOR_NAME	28	Incongruent	żółty	yellow	niebieski	blue	hit	n/a
365.2278	n/a	RESPONSE	n/a	n/a	n/a	n/a	n/a	n/a	n/a	yellow
365.2561	1.0167	ITI	n/a	n/a	n/a	n/a	n/a	n/a	n/a	n/a
366.2728	0.5167	FIXCROSS	n/a	n/a	n/a	n/a	n/a	n/a	n/a	n/a
366.7895	0.95	COLOR_NAME	29	Neutral	czerwony	red	Neutral	Neutral	hit	n/a
367.7073	n/a	RESPONSE	n/a	n/a	n/a	n/a	n/a	n/a	n/a	red
367.7395	1.0167	ITI	n/a	n/a	n/a	n/a	n/a	n/a	n/a	n/a
368.7562	0.5167	FIXCROSS	n/a	n/a	n/a	n/a	n/a	n/a	n/a	n/a
369.2728	0.8834	COLOR_NAME	30	Incongruent	czerwony	red	żółty	yellow	hit	n/a
370.1227	n/a	RESPONSE	n/a	n/a	n/a	n/a	n/a	n/a	n/a	red
370.1562	1.0167	ITI	n/a	n/a	n/a	n/a	n/a	n/a	n/a	n/a
371.1729	0.5167	FIXCROSS	n/a	n/a	n/a	n/a	n/a	n/a	n/a	n/a
371.6895	0.9	COLOR_NAME	31	Incongruent	żółty	yellow	zielony	green	hit	n/a
372.5701	n/a	RESPONSE	n/a	n/a	n/a	n/a	n/a	n/a	n/a	yellow
372.5896	1.0167	ITI	n/a	n/a	n/a	n/a	n/a	n/a	n/a	n/a
373.6062	0.5167	FIXCROSS	n/a	n/a	n/a	n/a	n/a	n/a	n/a	n/a
374.1229	1.0	COLOR_NAME	32	Incongruent	żółty	yellow	czerwony	red	hit	n/a
375.0975	n/a	RESPONSE	n/a	n/a	n/a	n/a	n/a	n/a	n/a	yellow
375.1229	1.0167	ITI	n/a	n/a	n/a	n/a	n/a	n/a	n/a	n/a
376.1396	0.5167	FIXCROSS	n/a	n/a	n/a	n/a	n/a	n/a	n/a	n/a
376.6563	0.8167	COLOR_NAME	33	Neutral	czerwony	red	Neutral	Neutral	hit	n/a
377.449	n/a	RESPONSE	n/a	n/a	n/a	n/a	n/a	n/a	n/a	red
377.473	1.0167	ITI	n/a	n/a	n/a	n/a	n/a	n/a	n/a	n/a
378.4896	0.5167	FIXCROSS	n/a	n/a	n/a	n/a	n/a	n/a	n/a	n/a
379.0063	0.8333	COLOR_NAME	34	Neutral	czerwony	red	Neutral	Neutral	hit	n/a
379.8165	n/a	RESPONSE	n/a	n/a	n/a	n/a	n/a	n/a	n/a	red
379.8396	1.0167	ITI	n/a	n/a	n/a	n/a	n/a	n/a	n/a	n/a
380.8563	0.5167	FIXCROSS	n/a	n/a	n/a	n/a	n/a	n/a	n/a	n/a
381.373	1.0	COLOR_NAME	35	Incongruent	niebieski	blue	czerwony	red	hit	n/a
382.3439	n/a	RESPONSE	n/a	n/a	n/a	n/a	n/a	n/a	n/a	blue
382.373	1.0167	ITI	n/a	n/a	n/a	n/a	n/a	n/a	n/a	n/a
383.3897	0.5167	FIXCROSS	n/a	n/a	n/a	n/a	n/a	n/a	n/a	n/a
383.9064	0.8	COLOR_NAME	36	Neutral	niebieski	blue	Neutral	Neutral	hit	n/a
384.6793	n/a	RESPONSE	n/a	n/a	n/a	n/a	n/a	n/a	n/a	blue
384.7064	1.0167	ITI	n/a	n/a	n/a	n/a	n/a	n/a	n/a	n/a
385.7231	0.5167	FIXCROSS	n/a	n/a	n/a	n/a	n/a	n/a	n/a	n/a
386.2397	0.8333	COLOR_NAME	37	Incongruent	czerwony	red	zielony	green	hit	n/a
387.0468	n/a	RESPONSE	n/a	n/a	n/a	n/a	n/a	n/a	n/a	red
387.0731	1.0167	ITI	n/a	n/a	n/a	n/a	n/a	n/a	n/a	n/a
388.0898	0.5167	FIXCROSS	n/a	n/a	n/a	n/a	n/a	n/a	n/a	n/a
388.6064	1.1333	COLOR_NAME	38	Incongruent	żółty	yellow	niebieski	blue	hit	n/a
389.7182	n/a	RESPONSE	n/a	n/a	n/a	n/a	n/a	n/a	n/a	yellow
389.7398	1.0167	ITI	n/a	n/a	n/a	n/a	n/a	n/a	n/a	n/a
390.7565	0.5167	FIXCROSS	n/a	n/a	n/a	n/a	n/a	n/a	n/a	n/a
391.2731	0.8334	COLOR_NAME	39	Neutral	zielony	green	Neutral	Neutral	hit	n/a
392.0856	n/a	RESPONSE	n/a	n/a	n/a	n/a	n/a	n/a	n/a	green
392.1065	1.0167	ITI	n/a	n/a	n/a	n/a	n/a	n/a	n/a	n/a
393.1232	0.5167	FIXCROSS	n/a	n/a	n/a	n/a	n/a	n/a	n/a	n/a
393.6398	0.8833	COLOR_NAME	40	Neutral	czerwony	red	Neutral	Neutral	hit	n/a
394.501	n/a	RESPONSE	n/a	n/a	n/a	n/a	n/a	n/a	n/a	red
394.5232	1.0167	ITI	n/a	n/a	n/a	n/a	n/a	n/a	n/a	n/a
395.5399	0.5167	FIXCROSS	n/a	n/a	n/a	n/a	n/a	n/a	n/a	n/a
396.0565	0.9667	COLOR_NAME	41	Neutral	żółty	yellow	Neutral	Neutral	hit	n/a
396.9965	n/a	RESPONSE	n/a	n/a	n/a	n/a	n/a	n/a	n/a	yellow
397.0232	1.0167	ITI	n/a	n/a	n/a	n/a	n/a	n/a	n/a	n/a
398.0399	0.5167	FIXCROSS	n/a	n/a	n/a	n/a	n/a	n/a	n/a	n/a
398.5566	0.9167	COLOR_NAME	42	Incongruent	niebieski	blue	zielony	green	hit	n/a
399.4439	n/a	RESPONSE	n/a	n/a	n/a	n/a	n/a	n/a	n/a	blue
399.4732	1.0167	ITI	n/a	n/a	n/a	n/a	n/a	n/a	n/a	n/a
400.4899	0.5167	FIXCROSS	n/a	n/a	n/a	n/a	n/a	n/a	n/a	n/a
401.0066	0.8333	COLOR_NAME	43	Neutral	niebieski	blue	Neutral	Neutral	hit	n/a
401.8114	n/a	RESPONSE	n/a	n/a	n/a	n/a	n/a	n/a	n/a	blue
401.8399	1.0167	ITI	n/a	n/a	n/a	n/a	n/a	n/a	n/a	n/a
402.8566	0.5167	FIXCROSS	n/a	n/a	n/a	n/a	n/a	n/a	n/a	n/a
403.3733	1.0334	COLOR_NAME	44	Incongruent	czerwony	red	niebieski	blue	hit	n/a
404.3868	n/a	RESPONSE	n/a	n/a	n/a	n/a	n/a	n/a	n/a	red
404.4066	1.0167	ITI	n/a	n/a	n/a	n/a	n/a	n/a	n/a	n/a
405.4233	0.5167	FIXCROSS	n/a	n/a	n/a	n/a	n/a	n/a	n/a	n/a
405.94	0.9667	COLOR_NAME	45	Neutral	niebieski	blue	Neutral	Neutral	hit	n/a
406.8822	n/a	RESPONSE	n/a	n/a	n/a	n/a	n/a	n/a	n/a	blue
406.9067	1.0167	ITI	n/a	n/a	n/a	n/a	n/a	n/a	n/a	n/a
407.9234	0.5167	FIXCROSS	n/a	n/a	n/a	n/a	n/a	n/a	n/a	n/a
408.44	1.4334	COLOR_NAME	46	Incongruent	zielony	green	żółty	yellow	hit	n/a
409.8415	n/a	RESPONSE	n/a	n/a	n/a	n/a	n/a	n/a	n/a	green
409.8734	1.0167	ITI	n/a	n/a	n/a	n/a	n/a	n/a	n/a	n/a
410.8901	0.5167	FIXCROSS	n/a	n/a	n/a	n/a	n/a	n/a	n/a	n/a
411.4067	0.9167	COLOR_NAME	47	Incongruent	żółty	yellow	czerwony	red	hit	n/a
412.3049	n/a	RESPONSE	n/a	n/a	n/a	n/a	n/a	n/a	n/a	yellow
412.3234	1.0167	ITI	n/a	n/a	n/a	n/a	n/a	n/a	n/a	n/a
413.3401	0.5167	FIXCROSS	n/a	n/a	n/a	n/a	n/a	n/a	n/a	n/a
413.8568	0.8667	COLOR_NAME	48	Incongruent	niebieski	blue	żółty	yellow	hit	n/a
414.7044	n/a	RESPONSE	n/a	n/a	n/a	n/a	n/a	n/a	n/a	blue
414.7234	1.0167	ITI	n/a	n/a	n/a	n/a	n/a	n/a	n/a	n/a
415.7401	0.5167	FIXCROSS	n/a	n/a	n/a	n/a	n/a	n/a	n/a	n/a
416.2568	1.2	COLOR_NAME	49	Incongruent	zielony	green	niebieski	blue	hit	n/a
417.4238	n/a	RESPONSE	n/a	n/a	n/a	n/a	n/a	n/a	n/a	green
417.4568	1.0167	ITI	n/a	n/a	n/a	n/a	n/a	n/a	n/a	n/a
418.4735	0.5167	FIXCROSS	n/a	n/a	n/a	n/a	n/a	n/a	n/a	n/a
418.9902	0.95	COLOR_NAME	50	Neutral	czerwony	red	Neutral	Neutral	hit	n/a
419.9192	n/a	RESPONSE	n/a	n/a	n/a	n/a	n/a	n/a	n/a	red
419.9402	1.0167	ITI	n/a	n/a	n/a	n/a	n/a	n/a	n/a	n/a
420.9569	0.5167	FIXCROSS	n/a	n/a	n/a	n/a	n/a	n/a	n/a	n/a
421.4735	1.1667	COLOR_NAME	51	Neutral	zielony	green	Neutral	Neutral	hit	n/a
422.6066	n/a	RESPONSE	n/a	n/a	n/a	n/a	n/a	n/a	n/a	green
422.6402	1.0167	ITI	n/a	n/a	n/a	n/a	n/a	n/a	n/a	n/a
423.6569	0.5167	FIXCROSS	n/a	n/a	n/a	n/a	n/a	n/a	n/a	n/a
424.1736	0.9	COLOR_NAME	52	Neutral	żółty	yellow	Neutral	Neutral	hit	n/a
425.054	n/a	RESPONSE	n/a	n/a	n/a	n/a	n/a	n/a	n/a	yellow
425.0736	1.0167	ITI	n/a	n/a	n/a	n/a	n/a	n/a	n/a	n/a
426.0903	0.5167	FIXCROSS	n/a	n/a	n/a	n/a	n/a	n/a	n/a	n/a
426.6069	0.9	COLOR_NAME	53	Neutral	zielony	green	Neutral	Neutral	hit	n/a
427.4854	n/a	RESPONSE	n/a	n/a	n/a	n/a	n/a	n/a	n/a	green
427.5069	1.0167	ITI	n/a	n/a	n/a	n/a	n/a	n/a	n/a	n/a
428.5236	0.5167	FIXCROSS	n/a	n/a	n/a	n/a	n/a	n/a	n/a	n/a
429.0403	0.7833	COLOR_NAME	54	Neutral	czerwony	red	Neutral	Neutral	hit	n/a
429.8049	n/a	RESPONSE	n/a	n/a	n/a	n/a	n/a	n/a	n/a	red
429.8236	1.0167	ITI	n/a	n/a	n/a	n/a	n/a	n/a	n/a	n/a
430.8403	0.5167	FIXCROSS	n/a	n/a	n/a	n/a	n/a	n/a	n/a	n/a
431.357	1.0167	COLOR_NAME	55	Incongruent	zielony	green	żółty	yellow	hit	n/a
432.3483	n/a	RESPONSE	n/a	n/a	n/a	n/a	n/a	n/a	n/a	green
432.3737	1.0167	ITI	n/a	n/a	n/a	n/a	n/a	n/a	n/a	n/a
433.3904	0.5167	FIXCROSS	n/a	n/a	n/a	n/a	n/a	n/a	n/a	n/a
433.907	0.8833	COLOR_NAME	56	Incongruent	zielony	green	czerwony	red	hit	n/a
434.7638	n/a	RESPONSE	n/a	n/a	n/a	n/a	n/a	n/a	n/a	green
434.7904	1.0167	ITI	n/a	n/a	n/a	n/a	n/a	n/a	n/a	n/a
435.8071	0.5167	FIXCROSS	n/a	n/a	n/a	n/a	n/a	n/a	n/a	n/a
436.3237	0.95	COLOR_NAME	57	Incongruent	niebieski	blue	żółty	yellow	hit	n/a
437.2432	n/a	RESPONSE	n/a	n/a	n/a	n/a	n/a	n/a	n/a	blue
437.2737	1.0167	ITI	n/a	n/a	n/a	n/a	n/a	n/a	n/a	n/a
438.2904	0.5167	FIXCROSS	n/a	n/a	n/a	n/a	n/a	n/a	n/a	n/a
438.8071	0.8333	COLOR_NAME	58	Incongruent	niebieski	blue	żółty	yellow	hit	n/a
439.6106	n/a	RESPONSE	n/a	n/a	n/a	n/a	n/a	n/a	n/a	blue
439.6404	1.0167	ITI	n/a	n/a	n/a	n/a	n/a	n/a	n/a	n/a
440.6571	0.5167	FIXCROSS	n/a	n/a	n/a	n/a	n/a	n/a	n/a	n/a
441.1738	0.8167	COLOR_NAME	59	Incongruent	zielony	green	żółty	yellow	hit	n/a
441.9621	n/a	RESPONSE	n/a	n/a	n/a	n/a	n/a	n/a	n/a	green
441.9905	1.0167	ITI	n/a	n/a	n/a	n/a	n/a	n/a	n/a	n/a
443.0072	0.5167	FIXCROSS	n/a	n/a	n/a	n/a	n/a	n/a	n/a	n/a
443.5238	0.95	COLOR_NAME	60	Incongruent	zielony	green	czerwony	red	hit	n/a
444.4415	n/a	RESPONSE	n/a	n/a	n/a	n/a	n/a	n/a	n/a	green
444.4739	1.0167	ITI	n/a	n/a	n/a	n/a	n/a	n/a	n/a	n/a
445.4905	0.5167	FIXCROSS	n/a	n/a	n/a	n/a	n/a	n/a	n/a	n/a
446.0072	1.0167	COLOR_NAME	61	Incongruent	żółty	yellow	niebieski	blue	hit	n/a
447.0009	n/a	RESPONSE	n/a	n/a	n/a	n/a	n/a	n/a	n/a	yellow
447.0239	1.0167	ITI	n/a	n/a	n/a	n/a	n/a	n/a	n/a	n/a
448.0406	0.5167	FIXCROSS	n/a	n/a	n/a	n/a	n/a	n/a	n/a	n/a
448.5572	0.9	COLOR_NAME	62	Neutral	zielony	green	Neutral	Neutral	hit	n/a
449.4324	n/a	RESPONSE	n/a	n/a	n/a	n/a	n/a	n/a	n/a	green
449.4572	1.0167	ITI	n/a	n/a	n/a	n/a	n/a	n/a	n/a	n/a
450.4739	0.5167	FIXCROSS	n/a	n/a	n/a	n/a	n/a	n/a	n/a	n/a
450.9906	0.7167	COLOR_NAME	63	Neutral	zielony	green	Neutral	Neutral	hit	n/a
451.6879	n/a	RESPONSE	n/a	n/a	n/a	n/a	n/a	n/a	n/a	green
451.7073	1.0167	ITI	n/a	n/a	n/a	n/a	n/a	n/a	n/a	n/a
452.724	0.5167	FIXCROSS	n/a	n/a	n/a	n/a	n/a	n/a	n/a	n/a
453.2406	0.9167	COLOR_NAME	64	Neutral	żółty	yellow	Neutral	Neutral	hit	n/a
454.1353	n/a	RESPONSE	n/a	n/a	n/a	n/a	n/a	n/a	n/a	yellow
454.1573	1.0167	ITI	n/a	n/a	n/a	n/a	n/a	n/a	n/a	n/a
455.174	0.5167	FIXCROSS	n/a	n/a	n/a	n/a	n/a	n/a	n/a	n/a
455.6907	0.9333	COLOR_NAME	65	Incongruent	niebieski	blue	zielony	green	hit	n/a
456.5987	n/a	RESPONSE	n/a	n/a	n/a	n/a	n/a	n/a	n/a	blue
456.624	1.0167	ITI	n/a	n/a	n/a	n/a	n/a	n/a	n/a	n/a
457.6407	0.5167	FIXCROSS	n/a	n/a	n/a	n/a	n/a	n/a	n/a	n/a
458.1574	0.8667	COLOR_NAME	66	Neutral	niebieski	blue	Neutral	Neutral	hit	n/a
458.9982	n/a	RESPONSE	n/a	n/a	n/a	n/a	n/a	n/a	n/a	blue
459.024	1.0167	ITI	n/a	n/a	n/a	n/a	n/a	n/a	n/a	n/a
460.0407	0.5167	FIXCROSS	n/a	n/a	n/a	n/a	n/a	n/a	n/a	n/a
460.5574	0.9	COLOR_NAME	67	Neutral	czerwony	red	Neutral	Neutral	hit	n/a
461.4296	n/a	RESPONSE	n/a	n/a	n/a	n/a	n/a	n/a	n/a	red
461.4574	1.0167	ITI	n/a	n/a	n/a	n/a	n/a	n/a	n/a	n/a
462.4741	0.5167	FIXCROSS	n/a	n/a	n/a	n/a	n/a	n/a	n/a	n/a
462.9908	0.95	COLOR_NAME	68	Neutral	żółty	yellow	Neutral	Neutral	hit	n/a
463.9091	n/a	RESPONSE	n/a	n/a	n/a	n/a	n/a	n/a	n/a	yellow
463.9408	1.0167	ITI	n/a	n/a	n/a	n/a	n/a	n/a	n/a	n/a
464.9575	0.5167	FIXCROSS	n/a	n/a	n/a	n/a	n/a	n/a	n/a	n/a
465.4741	1.15	COLOR_NAME	69	Incongruent	czerwony	red	zielony	green	hit	n/a
466.5964	n/a	RESPONSE	n/a	n/a	n/a	n/a	n/a	n/a	n/a	red
466.6241	1.0167	ITI	n/a	n/a	n/a	n/a	n/a	n/a	n/a	n/a
467.6408	0.5167	FIXCROSS	n/a	n/a	n/a	n/a	n/a	n/a	n/a	n/a
468.1575	0.95	COLOR_NAME	70	Incongruent	czerwony	red	żółty	yellow	hit	n/a
469.0758	n/a	RESPONSE	n/a	n/a	n/a	n/a	n/a	n/a	n/a	red
469.1075	1.0166	ITI	n/a	n/a	n/a	n/a	n/a	n/a	n/a	n/a
470.1241	0.5167	FIXCROSS	n/a	n/a	n/a	n/a	n/a	n/a	n/a	n/a
470.6409	0.9167	COLOR_NAME	71	Neutral	żółty	yellow	Neutral	Neutral	hit	n/a
471.5393	n/a	RESPONSE	n/a	n/a	n/a	n/a	n/a	n/a	n/a	yellow
471.5575	1.0167	ITI	n/a	n/a	n/a	n/a	n/a	n/a	n/a	n/a
472.5742	0.5167	FIXCROSS	n/a	n/a	n/a	n/a	n/a	n/a	n/a	n/a
473.0909	0.8333	COLOR_NAME	72	Incongruent	zielony	green	czerwony	red	hit	n/a
473.9067	n/a	RESPONSE	n/a	n/a	n/a	n/a	n/a	n/a	n/a	green
473.9242	1.0333	ITI	n/a	n/a	n/a	n/a	n/a	n/a	n/a	n/a
489.1512	n/a	RESPONSE	n/a	n/a	n/a	n/a	n/a	n/a	n/a	n/a
