onset	duration	trial_type	n_back_condition	trial_number	stimulus	response_type
0.0	n/a	RESPONSE	n/a	n/a	n/a	n/a
0.0621	1.0167	ISI	n/a	n/a	n/a	n/a
1.0788	0.5167	DISTRACTOR	1	1	F	Correct Rejection
1.5955	1.0167	ISI	n/a	n/a	n/a	n/a
2.6122	0.5167	TARGET	1	2	F	Hit
2.9752	n/a	RESPONSE	n/a	n/a	n/a	n/a
3.1288	1.0167	ISI	n/a	n/a	n/a	n/a
4.1455	0.5167	TARGET	1	3	F	Hit
4.5268	n/a	RESPONSE	n/a	n/a	n/a	n/a
4.6622	1.0167	ISI	n/a	n/a	n/a	n/a
5.6788	0.5167	DISTRACTOR	1	4	A	Correct Rejection
6.1955	1.0167	ISI	n/a	n/a	n/a	n/a
7.2122	0.5167	TARGET	1	5	A	Hit
7.5501	n/a	RESPONSE	n/a	n/a	n/a	n/a
7.7289	1.0167	ISI	n/a	n/a	n/a	n/a
8.7455	0.5167	DISTRACTOR	1	6	G	Correct Rejection
9.2622	1.0167	ISI	n/a	n/a	n/a	n/a
10.2789	0.5167	DISTRACTOR	1	7	E	Correct Rejection
10.7956	1.0167	ISI	n/a	n/a	n/a	n/a
11.8122	0.5167	DISTRACTOR	1	8	D	Correct Rejection
12.3289	1.0167	ISI	n/a	n/a	n/a	n/a
13.3456	0.5167	DISTRACTOR	1	9	C	Correct Rejection
13.8622	1.0167	ISI	n/a	n/a	n/a	n/a
14.8789	0.5167	DISTRACTOR	1	10	J	Correct Rejection
15.3956	1.0167	ISI	n/a	n/a	n/a	n/a
16.4123	0.5167	TARGET	1	11	J	Hit
16.7638	n/a	RESPONSE	n/a	n/a	n/a	n/a
16.9289	1.0167	ISI	n/a	n/a	n/a	n/a
17.9456	0.5167	DISTRACTOR	1	12	G	Correct Rejection
18.4623	1.0167	ISI	n/a	n/a	n/a	n/a
19.479	0.5167	DISTRACTOR	1	13	D	Correct Rejection
19.9956	1.0167	ISI	n/a	n/a	n/a	n/a
21.0123	0.5167	TARGET	1	14	D	Hit
21.3706	n/a	RESPONSE	n/a	n/a	n/a	n/a
21.529	1.0167	ISI	n/a	n/a	n/a	n/a
22.5456	0.5167	DISTRACTOR	1	15	C	Correct Rejection
23.0623	1.0167	ISI	n/a	n/a	n/a	n/a
24.079	0.5167	DISTRACTOR	1	16	E	Correct Rejection
24.5957	1.0167	ISI	n/a	n/a	n/a	n/a
25.6123	0.5167	DISTRACTOR	1	17	D	Correct Rejection
26.129	1.0167	ISI	n/a	n/a	n/a	n/a
27.1457	0.5167	DISTRACTOR	1	18	A	Correct Rejection
27.6624	1.0167	ISI	n/a	n/a	n/a	n/a
28.679	0.5167	TARGET	1	19	A	Hit
29.0967	n/a	RESPONSE	n/a	n/a	n/a	n/a
29.1957	1.0167	ISI	n/a	n/a	n/a	n/a
30.2124	0.5167	DISTRACTOR	1	20	I	Correct Rejection
30.729	1.0167	ISI	n/a	n/a	n/a	n/a
31.7457	0.5167	DISTRACTOR	1	21	C	Correct Rejection
32.2624	1.0167	ISI	n/a	n/a	n/a	n/a
33.2791	0.5167	DISTRACTOR	1	22	F	Correct Rejection
33.7957	1.0167	ISI	n/a	n/a	n/a	n/a
34.8124	0.5167	DISTRACTOR	1	23	H	Correct Rejection
35.3291	1.0167	ISI	n/a	n/a	n/a	n/a
36.3457	0.5167	DISTRACTOR	1	24	J	Correct Rejection
36.8624	1.0167	ISI	n/a	n/a	n/a	n/a
37.8791	0.5167	DISTRACTOR	1	25	C	Correct Rejection
38.3958	1.0167	ISI	n/a	n/a	n/a	n/a
39.4124	0.5167	DISTRACTOR	1	26	G	Correct Rejection
39.9291	1.0167	ISI	n/a	n/a	n/a	n/a
40.9458	0.5167	TARGET	1	27	G	Hit
41.4456	n/a	RESPONSE	n/a	n/a	n/a	n/a
41.4624	1.0167	ISI	n/a	n/a	n/a	n/a
42.4791	0.5167	DISTRACTOR	1	28	B	Correct Rejection
42.9958	1.0167	ISI	n/a	n/a	n/a	n/a
44.0125	0.5167	DISTRACTOR	1	29	I	Correct Rejection
44.5291	1.0167	ISI	n/a	n/a	n/a	n/a
45.5458	0.5167	DISTRACTOR	1	30	H	Correct Rejection
46.0625	1.0167	ISI	n/a	n/a	n/a	n/a
47.0792	0.5167	TARGET	1	31	H	Hit
47.5242	n/a	RESPONSE	n/a	n/a	n/a	n/a
47.5958	1.0167	ISI	n/a	n/a	n/a	n/a
48.6125	0.5167	DISTRACTOR	1	32	F	Correct Rejection
49.1292	1.0167	ISI	n/a	n/a	n/a	n/a
50.1458	0.5167	DISTRACTOR	1	33	I	Correct Rejection
50.6625	1.0167	ISI	n/a	n/a	n/a	n/a
51.6792	0.5167	DISTRACTOR	1	34	F	Correct Rejection
52.1959	1.0167	ISI	n/a	n/a	n/a	n/a
53.2125	0.5167	DISTRACTOR	1	35	H	Correct Rejection
53.7292	1.0167	ISI	n/a	n/a	n/a	n/a
54.7459	0.5167	DISTRACTOR	1	36	C	Correct Rejection
55.2625	1.0167	ISI	n/a	n/a	n/a	n/a
56.2792	0.5167	DISTRACTOR	1	37	F	Correct Rejection
56.7959	1.0167	ISI	n/a	n/a	n/a	n/a
57.8126	0.5167	DISTRACTOR	1	38	B	Correct Rejection
58.3292	1.0167	ISI	n/a	n/a	n/a	n/a
59.3459	0.5167	DISTRACTOR	1	39	D	Correct Rejection
59.8626	1.0167	ISI	n/a	n/a	n/a	n/a
60.8793	0.5167	DISTRACTOR	1	40	F	Correct Rejection
61.3959	1.0167	ISI	n/a	n/a	n/a	n/a
62.4126	0.5167	DISTRACTOR	1	41	H	Correct Rejection
62.9293	1.0167	ISI	n/a	n/a	n/a	n/a
63.9459	0.5167	DISTRACTOR	1	42	J	Correct Rejection
64.4626	1.0167	ISI	n/a	n/a	n/a	n/a
65.4793	0.5167	DISTRACTOR	1	43	F	Correct Rejection
65.996	1.0167	ISI	n/a	n/a	n/a	n/a
67.0126	0.5167	DISTRACTOR	1	44	E	Correct Rejection
67.5293	1.0167	ISI	n/a	n/a	n/a	n/a
68.546	0.5167	DISTRACTOR	1	45	F	Correct Rejection
69.0627	1.0167	ISI	n/a	n/a	n/a	n/a
70.0793	0.5167	TARGET	1	46	F	Hit
70.596	1.0167	ISI	n/a	n/a	n/a	n/a
70.6224	n/a	RESPONSE	n/a	n/a	n/a	n/a
71.6127	0.5167	DISTRACTOR	1	47	J	Correct Rejection
72.1293	1.0167	ISI	n/a	n/a	n/a	n/a
73.146	0.5167	DISTRACTOR	1	48	D	Correct Rejection
73.6627	1.0167	ISI	n/a	n/a	n/a	n/a
74.6794	0.5167	TARGET	1	49	D	Hit
75.196	1.0167	ISI	n/a	n/a	n/a	n/a
75.3733	n/a	RESPONSE	n/a	n/a	n/a	n/a
76.2127	0.5167	DISTRACTOR	1	50	I	Correct Rejection
76.7294	1.1167	ISI	n/a	n/a	n/a	n/a
86.2346	n/a	RESPONSE	n/a	n/a	n/a	n/a
86.2961	1.0167	ISI	n/a	n/a	n/a	n/a
87.3128	0.5167	DISTRACTOR	2	1	E	Correct Rejection
87.8294	1.0167	ISI	n/a	n/a	n/a	n/a
88.8461	0.5167	DISTRACTOR	2	2	C	Correct Rejection
89.3628	1.0167	ISI	n/a	n/a	n/a	n/a
90.3795	0.5167	DISTRACTOR	2	3	D	Correct Rejection
90.8961	1.0167	ISI	n/a	n/a	n/a	n/a
91.9128	0.5167	DISTRACTOR	2	4	D	Correct Rejection
92.4295	1.0167	ISI	n/a	n/a	n/a	n/a
93.4462	0.5167	DISTRACTOR	2	5	H	Correct Rejection
93.9628	1.0167	ISI	n/a	n/a	n/a	n/a
94.9795	0.5167	DISTRACTOR	2	6	B	Correct Rejection
95.4962	1.0167	ISI	n/a	n/a	n/a	n/a
96.5128	0.5167	DISTRACTOR	2	7	B	Correct Rejection
97.0295	1.0167	ISI	n/a	n/a	n/a	n/a
98.0462	0.5167	TARGET	2	8	B	Hit
98.5629	1.0167	ISI	n/a	n/a	n/a	n/a
98.5995	n/a	RESPONSE	n/a	n/a	n/a	n/a
99.5795	0.5167	TARGET	2	9	B	Hit
100.0962	1.0167	ISI	n/a	n/a	n/a	n/a
100.503	n/a	RESPONSE	n/a	n/a	n/a	n/a
101.1129	0.5167	TARGET	2	10	B	Hit
101.6295	1.0167	ISI	n/a	n/a	n/a	n/a
101.6867	n/a	RESPONSE	n/a	n/a	n/a	n/a
102.6462	0.5167	TARGET	2	11	B	Hit
103.1424	n/a	RESPONSE	n/a	n/a	n/a	n/a
103.1629	1.0167	ISI	n/a	n/a	n/a	n/a
104.1796	0.5167	DISTRACTOR	2	12	F	Correct Rejection
104.6962	1.0167	ISI	n/a	n/a	n/a	n/a
105.7129	0.5167	DISTRACTOR	2	13	D	Correct Rejection
106.2296	1.0167	ISI	n/a	n/a	n/a	n/a
107.2463	0.5167	DISTRACTOR	2	14	I	Correct Rejection
107.7629	1.0167	ISI	n/a	n/a	n/a	n/a
108.7796	0.5167	DISTRACTOR	2	15	B	Correct Rejection
109.2963	1.0167	ISI	n/a	n/a	n/a	n/a
110.313	0.5167	TARGET	2	16	I	Hit
110.8296	1.0167	ISI	n/a	n/a	n/a	n/a
110.8845	n/a	RESPONSE	n/a	n/a	n/a	n/a
111.8463	0.5167	DISTRACTOR	2	17	I	False Alarm
112.363	1.0167	ISI	n/a	n/a	n/a	n/a
112.596	n/a	RESPONSE	n/a	n/a	n/a	n/a
113.3796	0.5167	DISTRACTOR	2	18	J	Correct Rejection
113.8963	1.0167	ISI	n/a	n/a	n/a	n/a
114.913	0.5167	DISTRACTOR	2	19	C	Correct Rejection
115.4297	1.0167	ISI	n/a	n/a	n/a	n/a
116.4463	0.5167	DISTRACTOR	2	20	E	Correct Rejection
116.963	1.0167	ISI	n/a	n/a	n/a	n/a
117.9797	0.5167	TARGET	2	21	C	Hit
118.3386	n/a	RESPONSE	n/a	n/a	n/a	n/a
118.4963	1.0167	ISI	n/a	n/a	n/a	n/a
119.513	0.5167	DISTRACTOR	2	22	H	Correct Rejection
120.0297	1.0167	ISI	n/a	n/a	n/a	n/a
121.0464	0.5167	DISTRACTOR	2	23	H	Correct Rejection
121.563	1.0167	ISI	n/a	n/a	n/a	n/a
122.5797	0.5167	DISTRACTOR	2	24	I	Correct Rejection
123.0964	1.0167	ISI	n/a	n/a	n/a	n/a
124.113	0.5167	TARGET	2	25	H	Hit
124.6091	n/a	RESPONSE	n/a	n/a	n/a	n/a
124.6297	1.0167	ISI	n/a	n/a	n/a	n/a
125.6464	0.5167	DISTRACTOR	2	26	H	Correct Rejection
126.1631	1.0167	ISI	n/a	n/a	n/a	n/a
127.1797	0.5167	TARGET	2	27	H	Hit
127.6643	n/a	RESPONSE	n/a	n/a	n/a	n/a
127.6964	1.0167	ISI	n/a	n/a	n/a	n/a
128.7131	0.5167	DISTRACTOR	2	28	I	Correct Rejection
129.2297	1.0167	ISI	n/a	n/a	n/a	n/a
130.2464	0.5167	DISTRACTOR	2	29	A	Correct Rejection
130.7631	1.0167	ISI	n/a	n/a	n/a	n/a
131.7798	0.5167	DISTRACTOR	2	30	A	Correct Rejection
132.2964	1.0167	ISI	n/a	n/a	n/a	n/a
133.3131	0.5167	DISTRACTOR	2	31	F	Correct Rejection
133.8298	1.0167	ISI	n/a	n/a	n/a	n/a
134.8465	0.5167	DISTRACTOR	2	32	B	Correct Rejection
135.3631	1.0167	ISI	n/a	n/a	n/a	n/a
136.3798	0.5167	DISTRACTOR	2	33	E	Correct Rejection
136.8965	1.0167	ISI	n/a	n/a	n/a	n/a
137.9131	0.5167	TARGET	2	34	B	Hit
138.4298	1.0167	ISI	n/a	n/a	n/a	n/a
138.8615	n/a	RESPONSE	n/a	n/a	n/a	n/a
139.4465	0.5167	TARGET	2	35	E	Hit
139.9632	1.0167	ISI	n/a	n/a	n/a	n/a
140.4292	n/a	RESPONSE	n/a	n/a	n/a	n/a
140.9798	0.5167	DISTRACTOR	2	36	F	Correct Rejection
141.4965	1.0167	ISI	n/a	n/a	n/a	n/a
142.5132	0.5167	DISTRACTOR	2	37	H	Correct Rejection
143.0299	1.0167	ISI	n/a	n/a	n/a	n/a
144.0465	0.5167	DISTRACTOR	2	38	H	False Alarm
144.4602	n/a	RESPONSE	n/a	n/a	n/a	n/a
144.5632	1.0167	ISI	n/a	n/a	n/a	n/a
145.5799	0.5167	DISTRACTOR	2	39	F	False Alarm
146.0965	1.0167	ISI	n/a	n/a	n/a	n/a
146.2037	n/a	RESPONSE	n/a	n/a	n/a	n/a
147.1132	0.5167	DISTRACTOR	2	40	F	False Alarm
147.6299	1.0167	ISI	n/a	n/a	n/a	n/a
148.0113	n/a	RESPONSE	n/a	n/a	n/a	n/a
148.6466	0.5167	DISTRACTOR	2	41	C	Correct Rejection
149.1632	1.0167	ISI	n/a	n/a	n/a	n/a
150.1799	0.5167	DISTRACTOR	2	42	C	Correct Rejection
150.6966	1.0167	ISI	n/a	n/a	n/a	n/a
151.7132	0.5167	DISTRACTOR	2	43	F	Correct Rejection
152.2299	1.0167	ISI	n/a	n/a	n/a	n/a
153.2466	0.5167	DISTRACTOR	2	44	A	Correct Rejection
153.7633	1.0167	ISI	n/a	n/a	n/a	n/a
154.7799	0.5167	DISTRACTOR	2	45	J	Correct Rejection
155.2966	1.0167	ISI	n/a	n/a	n/a	n/a
156.3133	0.5167	DISTRACTOR	2	46	B	Correct Rejection
156.8299	1.0167	ISI	n/a	n/a	n/a	n/a
157.8466	0.5167	DISTRACTOR	2	47	C	Correct Rejection
158.3633	1.0167	ISI	n/a	n/a	n/a	n/a
159.38	0.5167	DISTRACTOR	2	48	C	Correct Rejection
159.8966	1.0167	ISI	n/a	n/a	n/a	n/a
160.9133	0.5167	DISTRACTOR	2	49	A	Correct Rejection
161.43	1.0166	ISI	n/a	n/a	n/a	n/a
162.4466	0.5168	DISTRACTOR	2	50	F	Correct Rejection
162.9633	1.1	ISI	n/a	n/a	n/a	n/a
178.0198	n/a	RESPONSE	n/a	n/a	n/a	n/a
178.0801	1.0167	ISI	n/a	n/a	n/a	n/a
179.0968	0.5167	DISTRACTOR	3	1	C	Correct Rejection
179.6134	1.0167	ISI	n/a	n/a	n/a	n/a
180.6301	0.5167	DISTRACTOR	3	2	E	Correct Rejection
181.1468	1.0167	ISI	n/a	n/a	n/a	n/a
182.1635	0.5167	DISTRACTOR	3	3	J	Correct Rejection
182.6801	1.0167	ISI	n/a	n/a	n/a	n/a
183.6968	0.5167	DISTRACTOR	3	4	I	Correct Rejection
184.2135	1.0167	ISI	n/a	n/a	n/a	n/a
185.2302	0.5167	TARGET	3	5	E	Hit
185.7134	n/a	RESPONSE	n/a	n/a	n/a	n/a
185.7468	1.0167	ISI	n/a	n/a	n/a	n/a
186.7635	0.5167	DISTRACTOR	3	6	G	Correct Rejection
187.2802	1.0167	ISI	n/a	n/a	n/a	n/a
188.2968	0.5167	DISTRACTOR	3	7	H	Correct Rejection
188.8135	1.0167	ISI	n/a	n/a	n/a	n/a
189.8302	0.5167	DISTRACTOR	3	8	A	Correct Rejection
190.3469	1.0167	ISI	n/a	n/a	n/a	n/a
191.3635	0.5167	DISTRACTOR	3	9	E	Correct Rejection
191.8802	1.0167	ISI	n/a	n/a	n/a	n/a
192.8969	0.5167	TARGET	3	10	H	Hit
193.392	n/a	RESPONSE	n/a	n/a	n/a	n/a
193.4135	1.0167	ISI	n/a	n/a	n/a	n/a
194.4302	0.5167	DISTRACTOR	3	11	I	Correct Rejection
194.9469	1.0167	ISI	n/a	n/a	n/a	n/a
195.9636	0.5167	DISTRACTOR	3	12	B	Correct Rejection
196.4802	1.0167	ISI	n/a	n/a	n/a	n/a
197.4969	0.5167	DISTRACTOR	3	13	A	Correct Rejection
198.0136	1.0167	ISI	n/a	n/a	n/a	n/a
199.0302	0.5167	DISTRACTOR	3	14	H	False Alarm
199.5469	1.0167	ISI	n/a	n/a	n/a	n/a
199.6785	n/a	RESPONSE	n/a	n/a	n/a	n/a
200.5636	0.5167	DISTRACTOR	3	15	A	False Alarm
201.0803	1.0167	ISI	n/a	n/a	n/a	n/a
201.9339	n/a	RESPONSE	n/a	n/a	n/a	n/a
202.0969	0.5167	DISTRACTOR	3	16	G	Correct Rejection
202.6136	1.0167	ISI	n/a	n/a	n/a	n/a
203.6303	0.5167	TARGET	3	17	H	Miss
204.1469	1.0167	ISI	n/a	n/a	n/a	n/a
205.1636	0.5167	DISTRACTOR	3	18	F	Correct Rejection
205.6803	1.0167	ISI	n/a	n/a	n/a	n/a
206.697	0.5167	TARGET	3	19	G	Hit
207.1006	n/a	RESPONSE	n/a	n/a	n/a	n/a
207.2136	1.0167	ISI	n/a	n/a	n/a	n/a
208.2303	0.5167	DISTRACTOR	3	20	D	Correct Rejection
208.747	1.0167	ISI	n/a	n/a	n/a	n/a
209.7637	0.5167	DISTRACTOR	3	21	C	Correct Rejection
210.2803	1.0167	ISI	n/a	n/a	n/a	n/a
211.297	0.5167	DISTRACTOR	3	22	E	Correct Rejection
211.8137	1.0167	ISI	n/a	n/a	n/a	n/a
212.8303	0.5167	DISTRACTOR	3	23	B	Correct Rejection
213.347	1.0167	ISI	n/a	n/a	n/a	n/a
214.3637	0.5167	TARGET	3	24	C	Hit
214.8804	1.0167	ISI	n/a	n/a	n/a	n/a
215.0507	n/a	RESPONSE	n/a	n/a	n/a	n/a
215.897	0.5167	DISTRACTOR	3	25	I	Correct Rejection
216.4137	1.0167	ISI	n/a	n/a	n/a	n/a
217.4304	0.5167	TARGET	3	26	B	Miss
217.9471	1.0167	ISI	n/a	n/a	n/a	n/a
218.9637	0.5167	DISTRACTOR	3	27	F	Correct Rejection
219.4804	1.0167	ISI	n/a	n/a	n/a	n/a
220.4971	0.5167	DISTRACTOR	3	28	G	Correct Rejection
221.0137	1.0167	ISI	n/a	n/a	n/a	n/a
222.0304	0.5167	DISTRACTOR	3	29	G	Correct Rejection
222.5471	1.0167	ISI	n/a	n/a	n/a	n/a
223.5638	0.5167	TARGET	3	30	F	Hit
223.9125	n/a	RESPONSE	n/a	n/a	n/a	n/a
224.0804	1.0167	ISI	n/a	n/a	n/a	n/a
225.0971	0.5167	DISTRACTOR	3	31	F	Correct Rejection
225.6138	1.0167	ISI	n/a	n/a	n/a	n/a
226.6304	0.5167	DISTRACTOR	3	32	D	Correct Rejection
227.1471	1.0167	ISI	n/a	n/a	n/a	n/a
228.1638	0.5167	DISTRACTOR	3	33	D	Correct Rejection
228.6805	1.0167	ISI	n/a	n/a	n/a	n/a
229.6971	0.5167	DISTRACTOR	3	34	I	False Alarm
230.2138	1.0167	ISI	n/a	n/a	n/a	n/a
230.5988	n/a	RESPONSE	n/a	n/a	n/a	n/a
231.2305	0.5167	DISTRACTOR	3	35	A	Correct Rejection
231.7471	1.0167	ISI	n/a	n/a	n/a	n/a
232.7638	0.5167	DISTRACTOR	3	36	G	Correct Rejection
233.2805	1.0167	ISI	n/a	n/a	n/a	n/a
234.2972	0.5167	DISTRACTOR	3	37	B	Correct Rejection
234.8138	1.0167	ISI	n/a	n/a	n/a	n/a
235.8305	0.5167	DISTRACTOR	3	38	E	Correct Rejection
236.3472	1.0167	ISI	n/a	n/a	n/a	n/a
237.3638	0.5167	TARGET	3	39	G	Hit
237.765	n/a	RESPONSE	n/a	n/a	n/a	n/a
237.8805	1.0167	ISI	n/a	n/a	n/a	n/a
238.8972	0.5167	DISTRACTOR	3	40	D	Correct Rejection
239.4139	1.0167	ISI	n/a	n/a	n/a	n/a
240.4305	0.5167	DISTRACTOR	3	41	I	Correct Rejection
240.9472	1.0167	ISI	n/a	n/a	n/a	n/a
241.9639	0.5167	DISTRACTOR	3	42	A	Correct Rejection
242.4805	1.0167	ISI	n/a	n/a	n/a	n/a
243.4972	0.5167	DISTRACTOR	3	43	G	Correct Rejection
244.0139	1.0167	ISI	n/a	n/a	n/a	n/a
245.0306	0.5167	DISTRACTOR	3	44	A	Correct Rejection
245.5472	1.0167	ISI	n/a	n/a	n/a	n/a
246.5639	0.5167	TARGET	3	45	A	Hit
247.0107	n/a	RESPONSE	n/a	n/a	n/a	n/a
247.0806	1.0167	ISI	n/a	n/a	n/a	n/a
248.0973	0.5167	DISTRACTOR	3	46	E	Correct Rejection
248.6139	1.0167	ISI	n/a	n/a	n/a	n/a
249.6306	0.5167	DISTRACTOR	3	47	D	Correct Rejection
250.1473	1.0167	ISI	n/a	n/a	n/a	n/a
251.1639	0.5167	DISTRACTOR	3	48	I	Correct Rejection
251.6806	1.0167	ISI	n/a	n/a	n/a	n/a
252.6973	0.5167	DISTRACTOR	3	49	B	Correct Rejection
253.214	1.0167	ISI	n/a	n/a	n/a	n/a
254.2306	0.5167	TARGET	3	50	D	Hit
254.7473	1.0333	ISI	n/a	n/a	n/a	n/a
254.8008	n/a	RESPONSE	n/a	n/a	n/a	n/a
257.6801	n/a	RESPONSE	n/a	n/a	n/a	n/a
