onset	duration	trial_type	melody_number	melody_part	key	sound	action
0.0	14.084	CUE_START	n/a	n/a	n/a	n/a	n/a
14.084	7.76	FIXCROSS	n/a	n/a	n/a	n/a	n/a
21.844	6.316	CUE_LISTEN	M1	1	n/a	n/a	n/a
28.16	7.758	FIXCROSS	n/a	n/a	n/a	n/a	n/a
35.918	6.325	CUE_PLAYBACK_RIGHT_HAND	M1	1	n/a	n/a	n/a
36.866	n/a	RESPONSE	M1	1	12	C4	press
37.362	n/a	RESPONSE	M1	1	14	D4	press
37.433	n/a	RESPONSE	M1	1	12	C4	release
37.933	n/a	RESPONSE	M1	1	16	E4	press
37.964	n/a	RESPONSE	M1	1	17	F4	press
38.076	n/a	RESPONSE	M1	1	14	D4	release
38.187	n/a	RESPONSE	M1	1	17	F4	release
38.47	n/a	RESPONSE	M1	1	12	C4	press
38.52	n/a	RESPONSE	M1	1	16	E4	release
38.731	n/a	RESPONSE	M1	1	12	C4	release
38.935	n/a	RESPONSE	M1	1	12	C4	press
39.463	n/a	RESPONSE	M1	1	14	D4	press
39.554	n/a	RESPONSE	M1	1	12	C4	release
39.947	n/a	RESPONSE	M1	1	16	E4	press
40.077	n/a	RESPONSE	M1	1	14	D4	release
40.448	n/a	RESPONSE	M1	1	12	C4	press
40.472	n/a	RESPONSE	M1	1	16	E4	release
40.901	n/a	RESPONSE	M1	1	16	E4	press
40.982	n/a	RESPONSE	M1	1	12	C4	release
41.313	n/a	RESPONSE	M1	1	17	F4	press
41.387	n/a	RESPONSE	M1	1	16	E4	release
41.756	n/a	RESPONSE	M1	1	19	G4	press
41.888	n/a	RESPONSE	M1	1	17	F4	release
42.243	7.758	FIXCROSS	n/a	n/a	n/a	n/a	n/a
42.598	n/a	RESPONSE	M1	1	19	G4	release
42.661	n/a	RESPONSE	M1	1	16	E4	press
43.101	n/a	RESPONSE	M1	1	17	F4	press
43.182	n/a	RESPONSE	M1	1	16	E4	release
43.563	n/a	RESPONSE	M1	1	19	G4	press
43.692	n/a	RESPONSE	M1	1	17	F4	release
44.317	n/a	RESPONSE	M1	1	19	G4	release
50.001	6.317	CUE_LISTEN	        M1	2	n/a	n/a	n/a
52.827	n/a	RESPONSE	        M1	2	14	D4	press
56.318	7.758	FIXCROSS	n/a	n/a	n/a	n/a	n/a
58.202	n/a	RESPONSE	        M1	2	14	D4	release
64.076	6.317	CUE_PLAYBACK_RIGHT_HAND	        M1	2	n/a	n/a	n/a
64.504	n/a	RESPONSE	        M1	2	19	G4	press
64.78	n/a	RESPONSE	        M1	2	21	A4	press
64.907	n/a	RESPONSE	        M1	2	19	G4	release
65.166	n/a	RESPONSE	        M1	2	19	G4	press
65.507	n/a	RESPONSE	        M1	2	21	A4	release
65.512	n/a	RESPONSE	        M1	2	17	F4	press
66.047	n/a	RESPONSE	        M1	2	16	E4	press
66.166	n/a	RESPONSE	        M1	2	19	G4	release
66.277	n/a	RESPONSE	        M1	2	17	F4	release
66.772	n/a	RESPONSE	        M1	2	12	C4	press
66.856	n/a	RESPONSE	        M1	2	16	E4	release
67.116	n/a	RESPONSE	        M1	2	12	C4	release
67.441	n/a	RESPONSE	        M1	2	19	G4	press
67.773	n/a	RESPONSE	        M1	2	21	A4	press
67.874	n/a	RESPONSE	        M1	2	19	G4	release
68.086	n/a	RESPONSE	        M1	2	19	G4	press
68.247	n/a	RESPONSE	        M1	2	21	A4	release
68.408	n/a	RESPONSE	        M1	2	17	F4	press
68.64	n/a	RESPONSE	        M1	2	19	G4	release
68.731	n/a	RESPONSE	        M1	2	16	E4	press
68.912	n/a	RESPONSE	        M1	2	17	F4	release
69.303	n/a	RESPONSE	        M1	2	12	C4	press
69.344	n/a	RESPONSE	        M1	2	14	D4	press
69.396	n/a	RESPONSE	        M1	2	16	E4	release
69.617	n/a	RESPONSE	        M1	2	14	D4	release
69.698	n/a	RESPONSE	        M1	2	12	C4	release
70.08	n/a	RESPONSE	        M1	2	12	C4	press
70.393	7.758	FIXCROSS	n/a	n/a	n/a	n/a	n/a
70.651	n/a	RESPONSE	        M1	2	07	G3	press
70.832	n/a	RESPONSE	        M1	2	12	C4	release
71.153	n/a	RESPONSE	        M1	2	12	C4	press
71.805	n/a	RESPONSE	        M1	2	12	C4	release
71.807	n/a	RESPONSE	        M1	2	07	G3	release
71.997	n/a	RESPONSE	        M1	2	12	C4	press
72.498	n/a	RESPONSE	        M1	2	07	G3	press
72.582	n/a	RESPONSE	        M1	2	12	C4	release
72.831	n/a	RESPONSE	        M1	2	12	C4	press
73.492	n/a	RESPONSE	        M1	2	07	G3	release
73.494	n/a	RESPONSE	        M1	2	12	C4	release
78.151	6.325	CUE_LISTEN	        M7	1	n/a	n/a	n/a
84.476	7.758	FIXCROSS	n/a	n/a	n/a	n/a	n/a
92.235	6.317	CUE_PLAYBACK_BOTH_HANDS	        M7	1	n/a	n/a	n/a
92.962	n/a	RESPONSE	        M7	1	19	G4	press
92.973	n/a	RESPONSE	        M7	1	05	F3	press
93.214	n/a	RESPONSE	        M7	1	19	G4	release
93.971	n/a	RESPONSE	        M7	1	19	G4	press
94.214	n/a	RESPONSE	        M7	1	19	G4	release
94.382	n/a	RESPONSE	        M7	1	05	F3	release
94.408	n/a	RESPONSE	        M7	1	09	A3	press
94.414	n/a	RESPONSE	        M7	1	19	G4	press
94.632	n/a	RESPONSE	        M7	1	19	G4	release
94.797	n/a	RESPONSE	        M7	1	09	A3	release
94.853	n/a	RESPONSE	        M7	1	04	E3	press
94.871	n/a	RESPONSE	        M7	1	19	G4	press
95.547	n/a	RESPONSE	        M7	1	19	G4	release
95.711	n/a	RESPONSE	        M7	1	04	E3	release
95.753	n/a	RESPONSE	        M7	1	19	G4	press
95.761	n/a	RESPONSE	        M7	1	09	A3	press
95.982	n/a	RESPONSE	        M7	1	19	G4	release
96.13	n/a	RESPONSE	        M7	1	02	D3	press
96.173	n/a	RESPONSE	        M7	1	19	G4	press
96.218	n/a	RESPONSE	        M7	1	09	A3	release
96.397	n/a	RESPONSE	        M7	1	19	G4	release
96.557	n/a	RESPONSE	        M7	1	09	A3	press
96.56	n/a	RESPONSE	        M7	1	19	G4	press
96.618	n/a	RESPONSE	        M7	1	02	D3	release
97.16	n/a	RESPONSE	        M7	1	19	G4	release
97.587	n/a	RESPONSE	        M7	1	09	A3	release
98.078	n/a	RESPONSE	        M7	1	19	G4	press
98.13	n/a	RESPONSE	        M7	1	05	F3	press
98.551	7.758	FIXCROSS	n/a	n/a	n/a	n/a	n/a
98.552	n/a	RESPONSE	        M7	1	23	B4	press
98.582	n/a	RESPONSE	        M7	1	09	A3	press
98.584	n/a	RESPONSE	        M7	1	21	A4	press
98.616	n/a	RESPONSE	        M7	1	19	G4	release
98.626	n/a	RESPONSE	        M7	1	07	G3	press
98.64	n/a	RESPONSE	        M7	1	05	F3	release
98.868	n/a	RESPONSE	        M7	1	21	A4	release
98.97	n/a	RESPONSE	        M7	1	16	E4	press
99.001	n/a	RESPONSE	        M7	1	04	E3	press
99.063	n/a	RESPONSE	        M7	1	07	G3	release
99.074	n/a	RESPONSE	        M7	1	23	B4	release
99.104	n/a	RESPONSE	        M7	1	09	A3	release
99.416	n/a	RESPONSE	        M7	1	17	F4	press
99.438	n/a	RESPONSE	        M7	1	09	A3	press
99.511	n/a	RESPONSE	        M7	1	04	E3	release
99.541	n/a	RESPONSE	        M7	1	16	E4	release
99.831	n/a	RESPONSE	        M7	1	19	G4	press
99.884	n/a	RESPONSE	        M7	1	02	D3	press
99.963	n/a	RESPONSE	        M7	1	09	A3	release
99.994	n/a	RESPONSE	        M7	1	17	F4	release
100.276	n/a	RESPONSE	        M7	1	09	A3	press
100.377	n/a	RESPONSE	        M7	1	02	D3	release
100.741	n/a	RESPONSE	        M7	1	00	C3	press
100.821	n/a	RESPONSE	        M7	1	09	A3	release
100.863	n/a	RESPONSE	        M7	1	02	D3	press
101.192	n/a	RESPONSE	        M7	1	09	A3	press
101.223	n/a	RESPONSE	        M7	1	02	D3	release
101.357	n/a	RESPONSE	        M7	1	00	C3	release
102.196	n/a	RESPONSE	        M7	1	09	A3	release
102.787	n/a	RESPONSE	        M7	1	19	G4	release
106.31	6.317	CUE_LISTEN	        M7	2	n/a	n/a	n/a
112.626	7.758	FIXCROSS	n/a	n/a	n/a	n/a	n/a
120.385	6.325	CUE_PLAYBACK_BOTH_HANDS	        M7	2	n/a	n/a	n/a
121.334	n/a	RESPONSE	        M7	2	20	G#4	press
121.337	n/a	RESPONSE	        M7	2	05	F3	press
121.667	n/a	RESPONSE	        M7	2	20	G#4	release
121.808	n/a	RESPONSE	        M7	2	05	F3	release
122.152	n/a	RESPONSE	        M7	2	05	F3	press
122.161	n/a	RESPONSE	        M7	2	20	G#4	press
122.402	n/a	RESPONSE	        M7	2	20	G#4	release
122.633	n/a	RESPONSE	        M7	2	05	F3	release
122.697	n/a	RESPONSE	        M7	2	20	G#4	press
122.716	n/a	RESPONSE	        M7	2	08	G#3	press
123.03	n/a	RESPONSE	        M7	2	20	G#4	release
123.278	n/a	RESPONSE	        M7	2	08	G#3	release
123.281	n/a	RESPONSE	        M7	2	02	D3	press
123.291	n/a	RESPONSE	        M7	2	20	G#4	press
123.542	n/a	RESPONSE	        M7	2	20	G#4	release
123.734	n/a	RESPONSE	        M7	2	08	G#3	press
123.774	n/a	RESPONSE	        M7	2	02	D3	release
123.802	n/a	RESPONSE	        M7	2	20	G#4	press
124.062	n/a	RESPONSE	        M7	2	20	G#4	release
124.216	n/a	RESPONSE	        M7	2	04	E3	press
124.264	n/a	RESPONSE	        M7	2	08	G#3	release
124.348	n/a	RESPONSE	        M7	2	20	G#4	press
124.858	n/a	RESPONSE	        M7	2	19	G4	press
124.867	n/a	RESPONSE	        M7	2	07	G3	press
124.951	n/a	RESPONSE	        M7	2	20	G#4	release
124.966	n/a	RESPONSE	        M7	2	04	E3	release
125.122	n/a	RESPONSE	        M7	2	19	G4	release
125.342	n/a	RESPONSE	        M7	2	00	C3	press
125.363	n/a	RESPONSE	        M7	2	19	G4	press
125.396	n/a	RESPONSE	        M7	2	07	G3	release
125.632	n/a	RESPONSE	        M7	2	19	G4	release
125.827	n/a	RESPONSE	        M7	2	07	G3	press
125.843	n/a	RESPONSE	        M7	2	19	G4	press
125.99	n/a	RESPONSE	        M7	2	00	C3	release
126.162	n/a	RESPONSE	        M7	2	19	G4	release
126.71	7.758	FIXCROSS	n/a	n/a	n/a	n/a	n/a
127.362	n/a	RESPONSE	        M7	2	21	A4	press
127.373	n/a	RESPONSE	        M7	2	19	G4	press
127.382	n/a	RESPONSE	        M7	2	05	F3	press
127.466	n/a	RESPONSE	        M7	2	07	G3	release
127.494	n/a	RESPONSE	        M7	2	19	G4	release
127.757	n/a	RESPONSE	        M7	2	21	A4	release
127.858	n/a	RESPONSE	        M7	2	09	A3	press
127.92	n/a	RESPONSE	        M7	2	05	F3	release
127.941	n/a	RESPONSE	        M7	2	21	A4	press
128.462	n/a	RESPONSE	        M7	2	02	D3	press
128.464	n/a	RESPONSE	        M7	2	19	G4	press
128.535	n/a	RESPONSE	        M7	2	09	A3	release
128.556	n/a	RESPONSE	        M7	2	21	A4	release
128.957	n/a	RESPONSE	        M7	2	09	A3	press
129.018	n/a	RESPONSE	        M7	2	21	A4	press
129.062	n/a	RESPONSE	        M7	2	07	G3	press
129.071	n/a	RESPONSE	        M7	2	02	D3	release
129.192	n/a	RESPONSE	        M7	2	19	G4	release
129.473	n/a	RESPONSE	        M7	2	07	G3	release
129.604	n/a	RESPONSE	        M7	2	09	A3	release
129.636	n/a	RESPONSE	        M7	2	19	G4	press
129.667	n/a	RESPONSE	        M7	2	05	F3	press
129.731	n/a	RESPONSE	        M7	2	21	A4	release
131.31	n/a	RESPONSE	        M7	2	05	F3	release
133.201	n/a	RESPONSE	        M7	2	19	G4	release
134.468	6.317	CUE_LISTEN	        M5	1	n/a	n/a	n/a
137.197	n/a	RESPONSE	        M5	1	07	G3	press
140.785	7.758	FIXCROSS	n/a	n/a	n/a	n/a	n/a
147.867	n/a	RESPONSE	        M5	1	07	G3	release
148.543	6.317	CUE_PLAYBACK_BOTH_HANDS	        M5	1	n/a	n/a	n/a
149.347	n/a	RESPONSE	        M5	1	19	G4	press
149.377	n/a	RESPONSE	        M5	1	04	E3	press
149.381	n/a	RESPONSE	        M5	1	00	C3	press
149.4	n/a	RESPONSE	        M5	1	07	G3	press
149.851	n/a	RESPONSE	        M5	1	16	E4	press
149.872	n/a	RESPONSE	        M5	1	19	G4	release
150.153	n/a	RESPONSE	        M5	1	16	E4	release
150.354	n/a	RESPONSE	        M5	1	16	E4	press
150.587	n/a	RESPONSE	        M5	1	04	E3	release
150.677	n/a	RESPONSE	        M5	1	16	E4	release
150.708	n/a	RESPONSE	        M5	1	00	C3	release
150.87	n/a	RESPONSE	        M5	1	05	F3	press
150.872	n/a	RESPONSE	        M5	1	17	F4	press
150.874	n/a	RESPONSE	        M5	1	02	D3	press
151.313	n/a	RESPONSE	        M5	1	14	D4	press
151.384	n/a	RESPONSE	        M5	1	17	F4	release
151.636	n/a	RESPONSE	        M5	1	14	D4	release
151.78	n/a	RESPONSE	        M5	1	14	D4	press
152.08	n/a	RESPONSE	        M5	1	05	F3	release
152.09	n/a	RESPONSE	        M5	1	07	G3	release
152.151	n/a	RESPONSE	        M5	1	02	D3	release
152.182	n/a	RESPONSE	        M5	1	14	D4	release
152.276	n/a	RESPONSE	        M5	1	04	E3	press
152.304	n/a	RESPONSE	        M5	1	07	G3	press
152.307	n/a	RESPONSE	        M5	1	12	C4	press
152.31	n/a	RESPONSE	        M5	1	00	C3	press
152.328	n/a	RESPONSE	        M5	1	14	D4	press
152.6	n/a	RESPONSE	        M5	1	16	E4	press
152.671	n/a	RESPONSE	        M5	1	14	D4	release
152.722	n/a	RESPONSE	        M5	1	12	C4	release
152.896	n/a	RESPONSE	        M5	1	19	G4	press
153.146	n/a	RESPONSE	        M5	1	16	E4	release
154.328	n/a	RESPONSE	        M5	1	04	E3	release
154.343	n/a	RESPONSE	        M5	1	00	C3	release
154.362	n/a	RESPONSE	        M5	1	19	G4	release
154.86	7.758	FIXCROSS	n/a	n/a	n/a	n/a	n/a
162.618	6.325	CUE_LISTEN	        M5	2	n/a	n/a	n/a
168.943	7.758	FIXCROSS	n/a	n/a	n/a	n/a	n/a
176.702	6.317	CUE_PLAYBACK_BOTH_HANDS	        M5	2	n/a	n/a	n/a
177.256	n/a	RESPONSE	        M5	2	19	G4	press
177.258	n/a	RESPONSE	        M5	2	04	E3	press
177.278	n/a	RESPONSE	        M5	2	00	C3	press
177.831	n/a	RESPONSE	        M5	2	16	E4	press
177.842	n/a	RESPONSE	        M5	2	19	G4	release
178.163	n/a	RESPONSE	        M5	2	16	E4	release
178.334	n/a	RESPONSE	        M5	2	16	E4	press
178.606	n/a	RESPONSE	        M5	2	04	E3	release
178.608	n/a	RESPONSE	        M5	2	00	C3	release
178.638	n/a	RESPONSE	        M5	2	16	E4	release
178.86	n/a	RESPONSE	        M5	2	05	F3	press
178.881	n/a	RESPONSE	        M5	2	17	F4	press
178.883	n/a	RESPONSE	        M5	2	02	D3	press
179.396	n/a	RESPONSE	        M5	2	14	D4	press
179.484	n/a	RESPONSE	        M5	2	17	F4	release
179.758	n/a	RESPONSE	        M5	2	14	D4	release
179.908	n/a	RESPONSE	        M5	2	14	D4	press
180.171	n/a	RESPONSE	        M5	2	02	D3	release
180.18	n/a	RESPONSE	        M5	2	07	G3	release
180.182	n/a	RESPONSE	        M5	2	05	F3	release
180.432	n/a	RESPONSE	        M5	2	04	E3	press
180.453	n/a	RESPONSE	        M5	2	07	G3	press
180.466	n/a	RESPONSE	        M5	2	14	D4	release
180.468	n/a	RESPONSE	        M5	2	00	C3	press
180.48	n/a	RESPONSE	        M5	2	12	C4	press
180.738	n/a	RESPONSE	        M5	2	16	E4	press
180.822	n/a	RESPONSE	        M5	2	12	C4	release
181.031	n/a	RESPONSE	        M5	2	12	C4	press
181.112	n/a	RESPONSE	        M5	2	16	E4	release
181.836	n/a	RESPONSE	        M5	2	12	C4	release
182.414	n/a	RESPONSE	        M5	2	04	E3	release
182.696	n/a	RESPONSE	        M5	2	00	C3	release
183.018	7.758	FIXCROSS	n/a	n/a	n/a	n/a	n/a
189.521	n/a	RESPONSE	        M5	2	07	G3	release
190.777	6.325	CUE_LISTEN	        M3	1	n/a	n/a	n/a
197.102	7.759	FIXCROSS	n/a	n/a	n/a	n/a	n/a
204.86	6.317	CUE_PLAYBACK_RIGHT_HAND	        M3	1	n/a	n/a	n/a
205.526	n/a	RESPONSE	        M3	1	22	A#4	press
205.993	n/a	RESPONSE	        M3	1	22	A#4	release
206.136	n/a	RESPONSE	        M3	1	22	A#4	press
206.813	n/a	RESPONSE	        M3	1	21	A4	press
207.037	n/a	RESPONSE	        M3	1	22	A#4	release
207.482	n/a	RESPONSE	        M3	1	19	G4	press
207.614	n/a	RESPONSE	        M3	1	21	A4	release
208.126	n/a	RESPONSE	        M3	1	21	A4	press
208.257	n/a	RESPONSE	        M3	1	19	G4	release
208.838	n/a	RESPONSE	        M3	1	14	D4	press
208.94	n/a	RESPONSE	        M3	1	21	A4	release
209.431	n/a	RESPONSE	        M3	1	14	D4	release
209.582	n/a	RESPONSE	        M3	1	14	D4	press
210.256	n/a	RESPONSE	        M3	1	19	G4	press
210.394	n/a	RESPONSE	        M3	1	14	D4	release
210.956	n/a	RESPONSE	        M3	1	07	G3	press
210.958	n/a	RESPONSE	        M3	1	09	A3	press
211.018	n/a	RESPONSE	        M3	1	19	G4	release
211.177	7.758	FIXCROSS	n/a	n/a	n/a	n/a	n/a
211.331	n/a	RESPONSE	        M3	1	07	G3	release
211.421	n/a	RESPONSE	        M3	1	11	B3	press
211.534	n/a	RESPONSE	        M3	1	09	A3	release
211.933	n/a	RESPONSE	        M3	1	12	C4	press
212.364	n/a	RESPONSE	        M3	1	14	D4	press
212.428	n/a	RESPONSE	        M3	1	11	B3	release
212.887	n/a	RESPONSE	        M3	1	12	C4	release
213.388	n/a	RESPONSE	        M3	1	14	D4	release
213.541	n/a	RESPONSE	        M3	1	14	D4	press
215.664	n/a	RESPONSE	        M3	1	14	D4	release
218.935	6.317	CUE_LISTEN	        M3	2	n/a	n/a	n/a
225.252	7.758	FIXCROSS	n/a	n/a	n/a	n/a	n/a
228.896	n/a	RESPONSE	        M3	2	14	D4	press
230.177	n/a	RESPONSE	        M3	2	14	D4	release
233.01	6.325	CUE_PLAYBACK_RIGHT_HAND	        M3	2	n/a	n/a	n/a
239.335	7.758	FIXCROSS	n/a	n/a	n/a	n/a	n/a
239.447	n/a	RESPONSE	        M3	2	13	C#4	press
239.888	n/a	RESPONSE	        M3	2	16	E4	press
239.892	n/a	RESPONSE	        M3	2	14	D4	press
239.941	n/a	RESPONSE	        M3	2	13	C#4	release
240.253	n/a	RESPONSE	        M3	2	16	E4	release
240.256	n/a	RESPONSE	        M3	2	14	D4	release
240.624	n/a	RESPONSE	        M3	2	16	E4	press
240.786	n/a	RESPONSE	        M3	2	13	C#4	press
240.807	n/a	RESPONSE	        M3	2	16	E4	release
241.159	n/a	RESPONSE	        M3	2	12	C4	press
241.26	n/a	RESPONSE	        M3	2	13	C#4	release
241.441	n/a	RESPONSE	        M3	2	11	B3	press
241.512	n/a	RESPONSE	        M3	2	12	C4	release
241.743	n/a	RESPONSE	        M3	2	12	C4	press
242.194	n/a	RESPONSE	        M3	2	11	B3	release
242.197	n/a	RESPONSE	        M3	2	13	C#4	press
242.287	n/a	RESPONSE	        M3	2	12	C4	release
242.518	n/a	RESPONSE	        M3	2	12	C4	press
242.639	n/a	RESPONSE	        M3	2	13	C#4	release
242.761	n/a	RESPONSE	        M3	2	11	B3	press
242.784	n/a	RESPONSE	        M3	2	12	C4	release
243.063	n/a	RESPONSE	        M3	2	08	G#3	press
243.384	n/a	RESPONSE	        M3	2	10	A#3	press
243.396	n/a	RESPONSE	        M3	2	11	B3	release
243.398	n/a	RESPONSE	        M3	2	08	G#3	release
243.948	n/a	RESPONSE	        M3	2	12	C4	press
244.057	n/a	RESPONSE	        M3	2	10	A#3	release
244.449	n/a	RESPONSE	        M3	2	11	B3	press
244.552	n/a	RESPONSE	        M3	2	12	C4	release
245.131	n/a	RESPONSE	        M3	2	09	A3	press
245.287	n/a	RESPONSE	        M3	2	11	B3	release
245.321	n/a	RESPONSE	        M3	2	09	A3	release
245.561	n/a	RESPONSE	        M3	2	11	B3	press
246.016	n/a	RESPONSE	        M3	2	09	A3	press
246.021	n/a	RESPONSE	        M3	2	07	G3	press
246.026	n/a	RESPONSE	        M3	2	11	B3	release
246.481	n/a	RESPONSE	        M3	2	07	G3	release
246.487	n/a	RESPONSE	        M3	2	09	A3	release
247.093	6.317	CUE_LISTEN	        M6	1	n/a	n/a	n/a
253.41	7.758	FIXCROSS	n/a	n/a	n/a	n/a	n/a
261.168	6.317	CUE_PLAYBACK_RIGHT_HAND	        M6	1	n/a	n/a	n/a
261.884	n/a	RESPONSE	        M6	1	11	B3	press
262.293	n/a	RESPONSE	        M6	1	14	D4	press
262.404	n/a	RESPONSE	        M6	1	11	B3	release
262.666	n/a	RESPONSE	        M6	1	17	F4	press
262.777	n/a	RESPONSE	        M6	1	14	D4	release
263.081	n/a	RESPONSE	        M6	1	16	E4	press
263.479	n/a	RESPONSE	        M6	1	14	D4	press
263.511	n/a	RESPONSE	        M6	1	17	F4	release
263.612	n/a	RESPONSE	        M6	1	16	E4	release
263.862	n/a	RESPONSE	        M6	1	12	C4	press
263.969	n/a	RESPONSE	        M6	1	14	D4	release
264.241	n/a	RESPONSE	        M6	1	14	D4	press
264.399	n/a	RESPONSE	        M6	1	12	C4	release
264.904	n/a	RESPONSE	        M6	1	14	D4	release
265.043	n/a	RESPONSE	        M6	1	11	B3	press
265.426	n/a	RESPONSE	        M6	1	14	D4	press
265.529	n/a	RESPONSE	        M6	1	11	B3	release
265.796	n/a	RESPONSE	        M6	1	17	F4	press
265.891	n/a	RESPONSE	        M6	1	14	D4	release
266.183	n/a	RESPONSE	        M6	1	16	E4	press
266.542	n/a	RESPONSE	        M6	1	14	D4	press
266.573	n/a	RESPONSE	        M6	1	17	F4	release
266.776	n/a	RESPONSE	        M6	1	16	E4	release
266.926	n/a	RESPONSE	        M6	1	12	C4	press
267.009	n/a	RESPONSE	        M6	1	14	D4	release
267.301	n/a	RESPONSE	        M6	1	14	D4	press
267.479	n/a	RESPONSE	        M6	1	12	C4	release
267.485	7.758	FIXCROSS	n/a	n/a	n/a	n/a	n/a
271.063	n/a	RESPONSE	        M6	1	14	D4	release
275.243	6.325	CUE_LISTEN	        M6	2	n/a	n/a	n/a
276.471	n/a	RESPONSE	        M6	2	11	B3	press
281.568	7.758	FIXCROSS	n/a	n/a	n/a	n/a	n/a
282.154	n/a	RESPONSE	        M6	2	11	B3	release
289.327	6.317	CUE_PLAYBACK_RIGHT_HAND	        M6	2	n/a	n/a	n/a
289.834	n/a	RESPONSE	        M6	2	11	B3	press
290.227	n/a	RESPONSE	        M6	2	14	D4	press
290.347	n/a	RESPONSE	        M6	2	11	B3	release
290.698	n/a	RESPONSE	        M6	2	16	E4	press
291.189	n/a	RESPONSE	        M6	2	19	G4	press
291.201	n/a	RESPONSE	        M6	2	17	F4	press
291.224	n/a	RESPONSE	        M6	2	14	D4	release
291.313	n/a	RESPONSE	        M6	2	16	E4	release
293.164	n/a	RESPONSE	        M6	2	17	F4	release
293.416	n/a	RESPONSE	        M6	2	19	G4	release
293.991	n/a	RESPONSE	        M6	2	18	F#4	press
294.433	n/a	RESPONSE	        M6	2	17	F4	press
294.469	n/a	RESPONSE	        M6	2	16	E4	press
294.606	n/a	RESPONSE	        M6	2	18	F#4	release
294.917	n/a	RESPONSE	        M6	2	17	F4	release
295.503	n/a	RESPONSE	        M6	2	16	E4	release
295.643	7.758	FIXCROSS	n/a	n/a	n/a	n/a	n/a
295.788	n/a	RESPONSE	        M6	2	12	C4	press
296.718	n/a	RESPONSE	        M6	2	12	C4	release
296.856	n/a	RESPONSE	        M6	2	12	C4	press
297.344	n/a	RESPONSE	        M6	2	12	C4	release
297.667	n/a	RESPONSE	        M6	2	16	E4	press
298.368	n/a	RESPONSE	        M6	2	18	F#4	press
298.459	n/a	RESPONSE	        M6	2	16	E4	release
298.961	n/a	RESPONSE	        M6	2	17	F4	press
299.332	n/a	RESPONSE	        M6	2	18	F#4	release
299.473	n/a	RESPONSE	        M6	2	16	E4	press
299.544	n/a	RESPONSE	        M6	2	17	F4	release
300.006	n/a	RESPONSE	        M6	2	14	D4	press
300.107	n/a	RESPONSE	        M6	2	16	E4	release
300.538	n/a	RESPONSE	        M6	2	16	E4	press
300.649	n/a	RESPONSE	        M6	2	14	D4	release
301.131	n/a	RESPONSE	        M6	2	16	E4	release
303.402	6.317	CUE_LISTEN	        M2	1	n/a	n/a	n/a
308.609	n/a	RESPONSE	        M2	1	07	G3	press
309.718	7.759	FIXCROSS	n/a	n/a	n/a	n/a	n/a
314.118	n/a	RESPONSE	        M2	1	07	G3	release
315.147	n/a	RESPONSE	        M2	1	24	C5	press
317.477	6.325	CUE_PLAYBACK_BOTH_HANDS	        M2	1	n/a	n/a	n/a
318.588	n/a	RESPONSE	        M2	1	00	C3	press
318.591	n/a	RESPONSE	        M2	1	07	G3	press
318.949	n/a	RESPONSE	        M2	1	19	G4	press
319.061	n/a	RESPONSE	        M2	1	24	C5	release
319.152	n/a	RESPONSE	        M2	1	00	C3	release
319.194	n/a	RESPONSE	        M2	1	19	G4	release
319.274	n/a	RESPONSE	        M2	1	19	G4	press
319.296	n/a	RESPONSE	        M2	1	00	C3	press
319.638	n/a	RESPONSE	        M2	1	17	F4	press
319.788	n/a	RESPONSE	        M2	1	00	C3	release
319.839	n/a	RESPONSE	        M2	1	19	G4	release
319.961	n/a	RESPONSE	        M2	1	16	E4	press
319.982	n/a	RESPONSE	        M2	1	00	C3	press
320.353	n/a	RESPONSE	        M2	1	14	D4	press
320.414	n/a	RESPONSE	        M2	1	17	F4	release
320.438	n/a	RESPONSE	        M2	1	00	C3	release
320.497	n/a	RESPONSE	        M2	1	16	E4	release
321.478	n/a	RESPONSE	        M2	1	16	E4	press
321.509	n/a	RESPONSE	        M2	1	00	C3	press
321.701	n/a	RESPONSE	        M2	1	14	D4	release
321.944	n/a	RESPONSE	        M2	1	16	E4	release
322.083	n/a	RESPONSE	        M2	1	00	C3	release
323.004	n/a	RESPONSE	        M2	1	24	C5	press
323.026	n/a	RESPONSE	        M2	1	00	C3	press
323.347	n/a	RESPONSE	        M2	1	21	A4	press
323.438	n/a	RESPONSE	        M2	1	24	C5	release
323.561	n/a	RESPONSE	        M2	1	00	C3	release
323.601	n/a	RESPONSE	        M2	1	21	A4	release
323.676	n/a	RESPONSE	        M2	1	21	A4	press
323.681	n/a	RESPONSE	        M2	1	00	C3	press
323.802	7.758	FIXCROSS	n/a	n/a	n/a	n/a	n/a
323.996	n/a	RESPONSE	        M2	1	19	G4	press
324.077	n/a	RESPONSE	        M2	1	21	A4	release
324.088	n/a	RESPONSE	        M2	1	00	C3	release
324.301	n/a	RESPONSE	        M2	1	17	F4	press
324.312	n/a	RESPONSE	        M2	1	00	C3	press
324.374	n/a	RESPONSE	        M2	1	19	G4	release
324.636	n/a	RESPONSE	        M2	1	16	E4	press
324.738	n/a	RESPONSE	        M2	1	17	F4	release
324.773	n/a	RESPONSE	        M2	1	00	C3	release
325.001	n/a	RESPONSE	        M2	1	00	C3	press
325.057	n/a	RESPONSE	        M2	1	17	F4	press
325.064	n/a	RESPONSE	        M2	1	19	G4	press
325.136	n/a	RESPONSE	        M2	1	16	E4	release
325.494	n/a	RESPONSE	        M2	1	19	G4	release
325.519	n/a	RESPONSE	        M2	1	17	F4	release
325.536	n/a	RESPONSE	        M2	1	00	C3	release
331.56	6.317	CUE_LISTEN	        M2	2	n/a	n/a	n/a
337.877	7.758	FIXCROSS	n/a	n/a	n/a	n/a	n/a
339.754	n/a	RESPONSE	        M2	2	17	F4	press
340.063	n/a	RESPONSE	        M2	2	17	F4	release
342.947	n/a	RESPONSE	        M2	2	07	G3	release
345.635	6.317	CUE_PLAYBACK_BOTH_HANDS	        M2	2	n/a	n/a	n/a
346.143	n/a	RESPONSE	        M2	2	12	C4	press
346.167	n/a	RESPONSE	        M2	2	00	C3	press
346.169	n/a	RESPONSE	        M2	2	07	G3	press
346.486	n/a	RESPONSE	        M2	2	14	D4	press
346.581	n/a	RESPONSE	        M2	2	12	C4	release
346.676	n/a	RESPONSE	        M2	2	00	C3	release
346.848	n/a	RESPONSE	        M2	2	16	E4	press
346.871	n/a	RESPONSE	        M2	2	00	C3	press
347.006	n/a	RESPONSE	        M2	2	14	D4	release
347.204	n/a	RESPONSE	        M2	2	14	D4	press
347.253	n/a	RESPONSE	        M2	2	16	E4	release
347.264	n/a	RESPONSE	        M2	2	00	C3	release
347.509	n/a	RESPONSE	        M2	2	00	C3	press
347.521	n/a	RESPONSE	        M2	2	16	E4	press
347.756	n/a	RESPONSE	        M2	2	14	D4	release
347.884	n/a	RESPONSE	        M2	2	17	F4	press
347.987	n/a	RESPONSE	        M2	2	00	C3	release
348.127	n/a	RESPONSE	        M2	2	16	E4	release
348.208	n/a	RESPONSE	        M2	2	00	C3	press
348.241	n/a	RESPONSE	        M2	2	19	G4	press
348.361	n/a	RESPONSE	        M2	2	17	F4	release
348.712	n/a	RESPONSE	        M2	2	00	C3	release
348.724	n/a	RESPONSE	        M2	2	19	G4	release
348.844	n/a	RESPONSE	        M2	2	07	G3	release
348.926	n/a	RESPONSE	        M2	2	16	E4	press
348.957	n/a	RESPONSE	        M2	2	00	C3	press
348.981	n/a	RESPONSE	        M2	2	07	G3	press
349.279	n/a	RESPONSE	        M2	2	21	A4	press
349.331	n/a	RESPONSE	        M2	2	16	E4	release
349.442	n/a	RESPONSE	        M2	2	00	C3	release
349.483	n/a	RESPONSE	        M2	2	21	A4	release
349.616	n/a	RESPONSE	        M2	2	00	C3	press
349.618	n/a	RESPONSE	        M2	2	21	A4	press
349.967	n/a	RESPONSE	        M2	2	17	F4	press
349.969	n/a	RESPONSE	        M2	2	19	G4	press
350.022	n/a	RESPONSE	        M2	2	21	A4	release
350.061	n/a	RESPONSE	        M2	2	00	C3	release
350.332	n/a	RESPONSE	        M2	2	19	G4	release
350.334	n/a	RESPONSE	        M2	2	17	F4	release
350.696	n/a	RESPONSE	        M2	2	19	G4	press
351.366	n/a	RESPONSE	        M2	2	19	G4	release
351.698	n/a	RESPONSE	        M2	2	17	F4	press
351.728	n/a	RESPONSE	        M2	2	00	C3	press
351.952	7.758	FIXCROSS	n/a	n/a	n/a	n/a	n/a
352.029	n/a	RESPONSE	        M2	2	21	A4	press
352.101	n/a	RESPONSE	        M2	2	17	F4	release
352.162	n/a	RESPONSE	        M2	2	00	C3	release
352.244	n/a	RESPONSE	        M2	2	21	A4	release
352.346	n/a	RESPONSE	        M2	2	00	C3	press
352.366	n/a	RESPONSE	        M2	2	21	A4	press
352.687	n/a	RESPONSE	        M2	2	19	G4	press
352.758	n/a	RESPONSE	        M2	2	00	C3	release
352.822	n/a	RESPONSE	        M2	2	21	A4	release
353.031	n/a	RESPONSE	        M2	2	17	F4	press
353.052	n/a	RESPONSE	        M2	2	00	C3	press
353.153	n/a	RESPONSE	        M2	2	19	G4	release
353.364	n/a	RESPONSE	        M2	2	16	E4	press
353.456	n/a	RESPONSE	        M2	2	00	C3	release
353.477	n/a	RESPONSE	        M2	2	17	F4	release
353.702	n/a	RESPONSE	        M2	2	00	C3	press
353.709	n/a	RESPONSE	        M2	2	14	D4	press
353.792	n/a	RESPONSE	        M2	2	16	E4	release
354.646	n/a	RESPONSE	        M2	2	14	D4	release
354.681	n/a	RESPONSE	        M2	2	00	C3	release
354.881	n/a	RESPONSE	        M2	2	07	G3	release
359.71	6.325	CUE_LISTEN	        M8	1	n/a	n/a	n/a
360.134	n/a	RESPONSE	        M8	1	07	G3	press
363.869	n/a	RESPONSE	        M8	1	07	G3	release
366.035	7.758	FIXCROSS	n/a	n/a	n/a	n/a	n/a
366.533	n/a	RESPONSE	        M8	1	12	C4	press
366.909	n/a	RESPONSE	        M8	1	12	C4	release
368.514	n/a	RESPONSE	        M8	1	12	C4	press
371.166	n/a	RESPONSE	        M8	1	12	C4	release
373.794	6.317	CUE_PLAYBACK_BOTH_HANDS	        M8	1	n/a	n/a	n/a
374.508	n/a	RESPONSE	        M8	1	12	C4	press
374.848	n/a	RESPONSE	        M8	1	16	E4	press
374.977	n/a	RESPONSE	        M8	1	12	C4	release
375.189	n/a	RESPONSE	        M8	1	19	G4	press
375.213	n/a	RESPONSE	        M8	1	21	A4	press
375.297	n/a	RESPONSE	        M8	1	16	E4	release
375.381	n/a	RESPONSE	        M8	1	21	A4	release
375.598	n/a	RESPONSE	        M8	1	19	G4	release
375.793	n/a	RESPONSE	        M8	1	19	G4	press
376.516	n/a	RESPONSE	        M8	1	15	D#4	press
376.518	n/a	RESPONSE	        M8	1	05	F3	press
376.827	n/a	RESPONSE	        M8	1	09	A3	press
377.119	n/a	RESPONSE	        M8	1	17	F4	press
377.236	n/a	RESPONSE	        M8	1	12	C4	press
377.267	n/a	RESPONSE	        M8	1	11	B3	press
377.274	n/a	RESPONSE	        M8	1	15	D#4	release
377.339	n/a	RESPONSE	        M8	1	09	A3	release
377.531	n/a	RESPONSE	        M8	1	11	B3	release
377.549	n/a	RESPONSE	        M8	1	05	F3	release
377.622	n/a	RESPONSE	        M8	1	12	C4	release
377.633	n/a	RESPONSE	        M8	1	19	G4	release
377.654	n/a	RESPONSE	        M8	1	17	F4	release
377.896	n/a	RESPONSE	        M8	1	12	C4	press
377.898	n/a	RESPONSE	        M8	1	17	F4	press
379.049	n/a	RESPONSE	        M8	1	10	A#3	press
379.089	n/a	RESPONSE	        M8	1	19	G4	press
379.101	n/a	RESPONSE	        M8	1	21	A4	press
379.142	n/a	RESPONSE	        M8	1	12	C4	release
379.203	n/a	RESPONSE	        M8	1	17	F4	release
379.604	n/a	RESPONSE	        M8	1	21	A4	release
379.816	n/a	RESPONSE	        M8	1	05	F3	press
380.11	7.758	FIXCROSS	n/a	n/a	n/a	n/a	n/a
380.337	n/a	RESPONSE	        M8	1	17	F4	press
381.351	n/a	RESPONSE	        M8	1	16	E4	press
381.399	n/a	RESPONSE	        M8	1	19	G4	release
381.891	n/a	RESPONSE	        M8	1	15	D#4	press
381.982	n/a	RESPONSE	        M8	1	15	D#4	release
382.123	n/a	RESPONSE	        M8	1	15	D#4	press
382.206	n/a	RESPONSE	        M8	1	17	F4	release
382.226	n/a	RESPONSE	        M8	1	16	E4	release
382.617	n/a	RESPONSE	        M8	1	12	C4	press
382.638	n/a	RESPONSE	        M8	1	14	D4	press
382.731	n/a	RESPONSE	        M8	1	05	F3	release
382.753	n/a	RESPONSE	        M8	1	10	A#3	release
382.764	n/a	RESPONSE	        M8	1	15	D#4	release
382.993	n/a	RESPONSE	        M8	1	11	B3	press
383.416	n/a	RESPONSE	        M8	1	19	G4	press
383.506	n/a	RESPONSE	        M8	1	14	D4	release
383.557	n/a	RESPONSE	        M8	1	07	G3	press
383.579	n/a	RESPONSE	        M8	1	12	C4	release
383.621	n/a	RESPONSE	        M8	1	11	B3	release
384.691	n/a	RESPONSE	        M8	1	07	G3	release
384.712	n/a	RESPONSE	        M8	1	19	G4	release
387.869	6.325	CUE_LISTEN	        M8	2	n/a	n/a	n/a
394.194	7.758	FIXCROSS	n/a	n/a	n/a	n/a	n/a
401.952	6.325	CUE_PLAYBACK_BOTH_HANDS	        M8	2	n/a	n/a	n/a
402.503	n/a	RESPONSE	        M8	2	12	C4	press
402.844	n/a	RESPONSE	        M8	2	16	E4	press
402.976	n/a	RESPONSE	        M8	2	12	C4	release
403.147	n/a	RESPONSE	        M8	2	19	G4	press
403.388	n/a	RESPONSE	        M8	2	16	E4	release
403.539	n/a	RESPONSE	        M8	2	19	G4	release
403.787	n/a	RESPONSE	        M8	2	19	G4	press
404.438	n/a	RESPONSE	        M8	2	13	C#4	press
404.442	n/a	RESPONSE	        M8	2	05	F3	press
404.747	n/a	RESPONSE	        M8	2	09	A3	press
405.123	n/a	RESPONSE	        M8	2	17	F4	press
405.131	n/a	RESPONSE	        M8	2	16	E4	press
405.133	n/a	RESPONSE	        M8	2	12	C4	press
405.193	n/a	RESPONSE	        M8	2	11	B3	press
405.213	n/a	RESPONSE	        M8	2	13	C#4	release
405.244	n/a	RESPONSE	        M8	2	09	A3	release
405.384	n/a	RESPONSE	        M8	2	05	F3	release
405.462	n/a	RESPONSE	        M8	2	11	B3	release
405.536	n/a	RESPONSE	        M8	2	16	E4	release
405.576	n/a	RESPONSE	        M8	2	12	C4	release
405.596	n/a	RESPONSE	        M8	2	17	F4	release
405.821	n/a	RESPONSE	        M8	2	17	F4	press
405.828	n/a	RESPONSE	        M8	2	12	C4	press
405.946	n/a	RESPONSE	        M8	2	19	G4	release
406.617	n/a	RESPONSE	        M8	2	19	G4	press
407.043	n/a	RESPONSE	        M8	2	17	F4	release
407.207	n/a	RESPONSE	        M8	2	19	G4	release
407.449	n/a	RESPONSE	        M8	2	19	G4	press
407.452	n/a	RESPONSE	        M8	2	10	A#3	press
407.522	n/a	RESPONSE	        M8	2	12	C4	release
408.224	n/a	RESPONSE	        M8	2	05	F3	press
408.277	7.758	FIXCROSS	n/a	n/a	n/a	n/a	n/a
408.726	n/a	RESPONSE	        M8	2	17	F4	press
408.937	n/a	RESPONSE	        M8	2	19	G4	release
409.208	n/a	RESPONSE	        M8	2	16	E4	press
409.809	n/a	RESPONSE	        M8	2	14	D4	press
409.861	n/a	RESPONSE	        M8	2	17	F4	release
409.962	n/a	RESPONSE	        M8	2	16	E4	release
410.193	n/a	RESPONSE	        M8	2	05	F3	release
410.276	n/a	RESPONSE	        M8	2	16	E4	press
410.318	n/a	RESPONSE	        M8	2	14	D4	release
410.337	n/a	RESPONSE	        M8	2	17	F4	press
410.658	n/a	RESPONSE	        M8	2	17	F4	release
411.071	n/a	RESPONSE	        M8	2	11	B3	press
411.101	n/a	RESPONSE	        M8	2	12	C4	press
411.612	n/a	RESPONSE	        M8	2	10	A#3	release
411.643	n/a	RESPONSE	        M8	2	12	C4	release
411.654	n/a	RESPONSE	        M8	2	11	B3	release
412.677	n/a	RESPONSE	        M8	2	09	A3	press
412.679	n/a	RESPONSE	        M8	2	12	C4	press
412.778	n/a	RESPONSE	        M8	2	16	E4	release
413.269	n/a	RESPONSE	        M8	2	07	G3	press
413.401	n/a	RESPONSE	        M8	2	09	A3	release
414.004	n/a	RESPONSE	        M8	2	07	G3	release
414.159	n/a	RESPONSE	        M8	2	07	G3	press
414.666	n/a	RESPONSE	        M8	2	04	E3	press
414.869	n/a	RESPONSE	        M8	2	07	G3	release
415.219	n/a	RESPONSE	        M8	2	00	C3	press
415.312	n/a	RESPONSE	        M8	2	04	E3	release
415.988	n/a	RESPONSE	        M8	2	12	C4	release
416.028	n/a	RESPONSE	        M8	2	00	C3	release
416.035	6.317	CUE_LISTEN	        M4	1	n/a	n/a	n/a
420.533	n/a	RESPONSE	        M4	1	04	E3	press
421.954	n/a	RESPONSE	        M4	1	04	E3	release
422.352	7.767	FIXCROSS	n/a	n/a	n/a	n/a	n/a
430.119	6.308	CUE_PLAYBACK_RIGHT_HAND	        M4	1	n/a	n/a	n/a
430.696	n/a	RESPONSE	        M4	1	16	E4	press
430.937	n/a	RESPONSE	        M4	1	15	D#4	press
430.99	n/a	RESPONSE	        M4	1	16	E4	release
431.139	n/a	RESPONSE	        M4	1	16	E4	press
431.331	n/a	RESPONSE	        M4	1	15	D#4	release
431.642	n/a	RESPONSE	        M4	1	19	G4	press
431.713	n/a	RESPONSE	        M4	1	21	A4	press
431.814	n/a	RESPONSE	        M4	1	16	E4	release
431.946	n/a	RESPONSE	        M4	1	19	G4	release
432.329	n/a	RESPONSE	        M4	1	21	A4	release
433.048	n/a	RESPONSE	        M4	1	16	E4	press
433.449	n/a	RESPONSE	        M4	1	15	D#4	press
433.561	n/a	RESPONSE	        M4	1	16	E4	release
433.714	n/a	RESPONSE	        M4	1	16	E4	press
433.834	n/a	RESPONSE	        M4	1	15	D#4	release
434.333	n/a	RESPONSE	        M4	1	19	G4	press
434.479	n/a	RESPONSE	        M4	1	16	E4	release
434.636	n/a	RESPONSE	        M4	1	21	A4	press
434.751	n/a	RESPONSE	        M4	1	19	G4	release
434.979	n/a	RESPONSE	        M4	1	19	G4	press
435.181	n/a	RESPONSE	        M4	1	21	A4	release
436.092	n/a	RESPONSE	        M4	1	19	G4	release
436.414	n/a	RESPONSE	        M4	1	16	E4	press
436.427	7.758	FIXCROSS	n/a	n/a	n/a	n/a	n/a
436.758	n/a	RESPONSE	        M4	1	15	D#4	press
436.834	n/a	RESPONSE	        M4	1	16	E4	release
436.986	n/a	RESPONSE	        M4	1	16	E4	press
437.139	n/a	RESPONSE	        M4	1	15	D#4	release
437.566	n/a	RESPONSE	        M4	1	17	F4	press
437.666	n/a	RESPONSE	        M4	1	16	E4	release
437.889	n/a	RESPONSE	        M4	1	19	G4	press
437.991	n/a	RESPONSE	        M4	1	17	F4	release
438.232	n/a	RESPONSE	        M4	1	17	F4	press
438.421	n/a	RESPONSE	        M4	1	19	G4	release
439.174	n/a	RESPONSE	        M4	1	17	F4	release
439.783	n/a	RESPONSE	        M4	1	16	E4	press
444.185	6.317	CUE_LISTEN	        M4	2	n/a	n/a	n/a
450.502	7.758	FIXCROSS	n/a	n/a	n/a	n/a	n/a
454.187	n/a	RESPONSE	        M4	2	16	E4	release
457.182	n/a	RESPONSE	        M4	2	17	F4	press
458.26	6.317	CUE_PLAYBACK_RIGHT_HAND	        M4	2	n/a	n/a	n/a
458.748	n/a	RESPONSE	        M4	2	17	F4	release
459.079	n/a	RESPONSE	        M4	2	17	F4	press
459.861	n/a	RESPONSE	        M4	2	17	F4	release
460.222	n/a	RESPONSE	        M4	2	14	D4	press
461.193	n/a	RESPONSE	        M4	2	14	D4	release
461.584	n/a	RESPONSE	        M4	2	17	F4	press
462.488	n/a	RESPONSE	        M4	2	17	F4	release
462.647	n/a	RESPONSE	        M4	2	14	D4	press
464.572	n/a	RESPONSE	        M4	2	14	D4	release
464.577	7.758	FIXCROSS	n/a	n/a	n/a	n/a	n/a
468.257	n/a	RESPONSE	        M4	2	16	E4	press
470.679	n/a	RESPONSE	        M4	2	16	E4	release
472.336	6.325	CUE_LISTEN	        M3	1	n/a	n/a	n/a
478.66	7.758	FIXCROSS	n/a	n/a	n/a	n/a	n/a
480.773	n/a	RESPONSE	        M3	1	05	F3	press
486.419	6.317	CUE_PLAYBACK_RIGHT_HAND	        M3	1	n/a	n/a	n/a
487.092	n/a	RESPONSE	        M3	1	19	G4	press
487.612	n/a	RESPONSE	        M3	1	19	G4	release
487.643	n/a	RESPONSE	        M3	1	16	E4	press
487.974	n/a	RESPONSE	        M3	1	16	E4	release
488.166	n/a	RESPONSE	        M3	1	16	E4	press
488.527	n/a	RESPONSE	        M3	1	16	E4	release
488.698	n/a	RESPONSE	        M3	1	17	F4	press
489.139	n/a	RESPONSE	        M3	1	17	F4	release
489.232	n/a	RESPONSE	        M3	1	14	D4	press
489.532	n/a	RESPONSE	        M3	1	14	D4	release
489.763	n/a	RESPONSE	        M3	1	14	D4	press
490.216	n/a	RESPONSE	        M3	1	12	C4	press
490.498	n/a	RESPONSE	        M3	1	16	E4	press
490.527	n/a	RESPONSE	        M3	1	14	D4	release
490.598	n/a	RESPONSE	        M3	1	12	C4	release
490.809	n/a	RESPONSE	        M3	1	19	G4	press
491.023	n/a	RESPONSE	        M3	1	16	E4	release
492.736	7.758	FIXCROSS	n/a	n/a	n/a	n/a	n/a
500.494	6.317	CUE_LISTEN	        M3	2	n/a	n/a	n/a
506.81	7.758	FIXCROSS	n/a	n/a	n/a	n/a	n/a
514.534	n/a	RESPONSE	        M3	2	19	G4	release
514.569	6.325	CUE_PLAYBACK_RIGHT_HAND	        M3	2	n/a	n/a	n/a
515.348	n/a	RESPONSE	        M3	2	19	G4	press
515.882	n/a	RESPONSE	        M3	2	16	E4	press
515.944	n/a	RESPONSE	        M3	2	19	G4	release
516.197	n/a	RESPONSE	        M3	2	16	E4	release
516.393	n/a	RESPONSE	        M3	2	16	E4	press
516.822	n/a	RESPONSE	        M3	2	16	E4	release
516.962	n/a	RESPONSE	        M3	2	17	F4	press
517.304	n/a	RESPONSE	        M3	2	17	F4	release
517.436	n/a	RESPONSE	        M3	2	17	F4	press
517.978	n/a	RESPONSE	        M3	2	14	D4	press
518.022	n/a	RESPONSE	        M3	2	17	F4	release
518.321	n/a	RESPONSE	        M3	2	14	D4	release
518.504	n/a	RESPONSE	        M3	2	14	D4	press
519.014	n/a	RESPONSE	        M3	2	12	C4	press
519.024	n/a	RESPONSE	        M3	2	14	D4	release
519.306	n/a	RESPONSE	        M3	2	16	E4	press
519.378	n/a	RESPONSE	        M3	2	12	C4	release
519.6	n/a	RESPONSE	        M3	2	12	C4	press
519.659	n/a	RESPONSE	        M3	2	16	E4	release
520.34	n/a	RESPONSE	        M3	2	12	C4	release
520.894	7.758	FIXCROSS	n/a	n/a	n/a	n/a	n/a
521.082	n/a	RESPONSE	        M3	2	05	F3	release
528.652	6.317	CUE_LISTEN	        M5	1	n/a	n/a	n/a
534.969	7.758	FIXCROSS	n/a	n/a	n/a	n/a	n/a
542.727	6.317	CUE_PLAYBACK_BOTH_HANDS	        M5	1	n/a	n/a	n/a
549.044	7.758	FIXCROSS	n/a	n/a	n/a	n/a	n/a
556.802	6.325	CUE_LISTEN	        M5	2	n/a	n/a	n/a
563.127	7.758	FIXCROSS	n/a	n/a	n/a	n/a	n/a
570.886	6.317	CUE_PLAYBACK_BOTH_HANDS	        M5	2	n/a	n/a	n/a
571.774	n/a	RESPONSE	        M5	2	09	A3	press
571.785	n/a	RESPONSE	        M5	2	14	D4	press
571.817	n/a	RESPONSE	        M5	2	02	D3	press
571.85	n/a	RESPONSE	        M5	2	07	G3	press
572.189	n/a	RESPONSE	        M5	2	04	E3	press
572.41	n/a	RESPONSE	        M5	2	19	G4	press
572.514	n/a	RESPONSE	        M5	2	07	G3	release
572.533	n/a	RESPONSE	        M5	2	14	D4	release
572.616	n/a	RESPONSE	        M5	2	09	A3	release
572.638	n/a	RESPONSE	        M5	2	04	E3	release
572.677	n/a	RESPONSE	        M5	2	14	D4	press
572.788	n/a	RESPONSE	        M5	2	19	G4	release
573.019	n/a	RESPONSE	        M5	2	19	G4	press
573.1	n/a	RESPONSE	        M5	2	14	D4	release
573.262	n/a	RESPONSE	        M5	2	02	D3	release
573.724	n/a	RESPONSE	        M5	2	19	G4	release
577.202	7.758	FIXCROSS	n/a	n/a	n/a	n/a	n/a
584.961	6.317	CUE_LISTEN	        M1	1	n/a	n/a	n/a
591.277	7.758	FIXCROSS	n/a	n/a	n/a	n/a	n/a
594.097	n/a	RESPONSE	        M1	1	17	F4	press
597.627	n/a	RESPONSE	        M1	1	17	F4	release
599.036	6.333	CUE_PLAYBACK_RIGHT_HAND	        M1	1	n/a	n/a	n/a
599.538	n/a	RESPONSE	        M1	1	17	F4	press
599.789	n/a	RESPONSE	        M1	1	17	F4	release
599.88	n/a	RESPONSE	        M1	1	17	F4	press
600.122	n/a	RESPONSE	        M1	1	17	F4	release
600.263	n/a	RESPONSE	        M1	1	17	F4	press
600.814	n/a	RESPONSE	        M1	1	17	F4	release
600.958	n/a	RESPONSE	        M1	1	17	F4	press
601.229	n/a	RESPONSE	        M1	1	17	F4	release
601.308	n/a	RESPONSE	        M1	1	17	F4	press
601.559	n/a	RESPONSE	        M1	1	17	F4	release
601.68	n/a	RESPONSE	        M1	1	17	F4	press
602.183	n/a	RESPONSE	        M1	1	17	F4	release
602.393	n/a	RESPONSE	        M1	1	17	F4	press
602.754	n/a	RESPONSE	        M1	1	21	A4	press
602.835	n/a	RESPONSE	        M1	1	17	F4	release
603.117	n/a	RESPONSE	        M1	1	14	D4	press
603.119	n/a	RESPONSE	        M1	1	12	C4	press
603.449	n/a	RESPONSE	        M1	1	12	C4	release
603.503	n/a	RESPONSE	        M1	1	15	D#4	press
603.703	n/a	RESPONSE	        M1	1	21	A4	release
603.72	n/a	RESPONSE	        M1	1	15	D#4	release
603.867	n/a	RESPONSE	        M1	1	16	E4	press
604.247	n/a	RESPONSE	        M1	1	14	D4	release
604.249	n/a	RESPONSE	        M1	1	17	F4	press
604.419	n/a	RESPONSE	        M1	1	16	E4	release
605.369	7.758	FIXCROSS	n/a	n/a	n/a	n/a	n/a
605.468	n/a	RESPONSE	        M1	1	17	F4	release
613.128	6.308	CUE_LISTEN	        M1	2	n/a	n/a	n/a
619.436	7.758	FIXCROSS	n/a	n/a	n/a	n/a	n/a
627.194	6.325	CUE_PLAYBACK_RIGHT_HAND	        M1	2	n/a	n/a	n/a
628.459	n/a	RESPONSE	        M1	2	18	F#4	press
628.68	n/a	RESPONSE	        M1	2	18	F#4	release
628.812	n/a	RESPONSE	        M1	2	18	F#4	press
629.063	n/a	RESPONSE	        M1	2	18	F#4	release
629.174	n/a	RESPONSE	        M1	2	18	F#4	press
629.405	n/a	RESPONSE	        M1	2	18	F#4	release
629.527	n/a	RESPONSE	        M1	2	18	F#4	press
629.788	n/a	RESPONSE	        M1	2	18	F#4	release
629.919	n/a	RESPONSE	        M1	2	18	F#4	press
630.36	n/a	RESPONSE	        M1	2	17	F4	press
630.452	n/a	RESPONSE	        M1	2	18	F#4	release
630.613	n/a	RESPONSE	        M1	2	17	F4	release
630.744	n/a	RESPONSE	        M1	2	17	F4	press
631.005	n/a	RESPONSE	        M1	2	17	F4	release
631.147	n/a	RESPONSE	        M1	2	17	F4	press
631.419	n/a	RESPONSE	        M1	2	17	F4	release
631.559	n/a	RESPONSE	        M1	2	17	F4	press
632.5	n/a	RESPONSE	        M1	2	17	F4	release
632.564	n/a	RESPONSE	        M1	2	16	E4	press
632.833	n/a	RESPONSE	        M1	2	16	E4	release
632.944	n/a	RESPONSE	        M1	2	16	E4	press
633.287	n/a	RESPONSE	        M1	2	17	F4	press
633.379	n/a	RESPONSE	        M1	2	16	E4	release
633.519	7.758	FIXCROSS	n/a	n/a	n/a	n/a	n/a
633.682	n/a	RESPONSE	        M1	2	16	E4	press
633.759	n/a	RESPONSE	        M1	2	17	F4	release
634.082	n/a	RESPONSE	        M1	2	21	A4	press
634.194	n/a	RESPONSE	        M1	2	16	E4	release
635.199	n/a	RESPONSE	        M1	2	21	A4	release
641.278	6.317	CUE_LISTEN	        M7	1	n/a	n/a	n/a
647.594	7.759	FIXCROSS	n/a	n/a	n/a	n/a	n/a
648.473	n/a	RESPONSE	        M7	1	07	G3	press
649.824	n/a	RESPONSE	        M7	1	07	G3	release
655.353	6.325	CUE_PLAYBACK_BOTH_HANDS	        M7	1	n/a	n/a	n/a
656.767	n/a	RESPONSE	        M7	1	12	C4	press
656.78	n/a	RESPONSE	        M7	1	00	C3	press
657.146	n/a	RESPONSE	        M7	1	07	G3	press
657.205	n/a	RESPONSE	        M7	1	14	D4	press
657.304	n/a	RESPONSE	        M7	1	00	C3	release
657.385	n/a	RESPONSE	        M7	1	12	C4	release
657.619	n/a	RESPONSE	        M7	1	04	E3	press
657.629	n/a	RESPONSE	        M7	1	16	E4	press
657.73	n/a	RESPONSE	        M7	1	07	G3	release
657.763	n/a	RESPONSE	        M7	1	14	D4	release
658.073	n/a	RESPONSE	        M7	1	07	G3	press
658.104	n/a	RESPONSE	        M7	1	12	C4	press
658.135	n/a	RESPONSE	        M7	1	04	E3	release
658.177	n/a	RESPONSE	        M7	1	16	E4	release
658.388	n/a	RESPONSE	        M7	1	12	C4	release
658.449	n/a	RESPONSE	        M7	1	07	G3	release
658.57	n/a	RESPONSE	        M7	1	00	C3	press
658.582	n/a	RESPONSE	        M7	1	12	C4	press
658.993	n/a	RESPONSE	        M7	1	07	G3	press
659.044	n/a	RESPONSE	        M7	1	14	D4	press
659.095	n/a	RESPONSE	        M7	1	00	C3	release
659.197	n/a	RESPONSE	        M7	1	12	C4	release
659.439	n/a	RESPONSE	        M7	1	04	E3	press
659.499	n/a	RESPONSE	        M7	1	16	E4	press
659.572	n/a	RESPONSE	        M7	1	07	G3	release
659.622	n/a	RESPONSE	        M7	1	14	D4	release
659.926	n/a	RESPONSE	        M7	1	07	G3	press
659.944	n/a	RESPONSE	        M7	1	12	C4	press
659.965	n/a	RESPONSE	        M7	1	16	E4	release
659.988	n/a	RESPONSE	        M7	1	04	E3	release
660.389	n/a	RESPONSE	        M7	1	16	E4	press
660.409	n/a	RESPONSE	        M7	1	00	C3	press
660.48	n/a	RESPONSE	        M7	1	07	G3	release
660.502	n/a	RESPONSE	        M7	1	12	C4	release
660.833	n/a	RESPONSE	        M7	1	17	F4	press
660.844	n/a	RESPONSE	        M7	1	07	G3	press
660.915	n/a	RESPONSE	        M7	1	16	E4	release
660.918	n/a	RESPONSE	        M7	1	00	C3	release
661.298	n/a	RESPONSE	        M7	1	04	E3	press
661.309	n/a	RESPONSE	        M7	1	19	G4	press
661.39	n/a	RESPONSE	        M7	1	07	G3	release
661.422	n/a	RESPONSE	        M7	1	17	F4	release
661.678	7.758	FIXCROSS	n/a	n/a	n/a	n/a	n/a
661.793	n/a	RESPONSE	        M7	1	07	G3	press
661.865	n/a	RESPONSE	        M7	1	04	E3	release
662.237	n/a	RESPONSE	        M7	1	16	E4	press
662.259	n/a	RESPONSE	        M7	1	00	C3	press
662.268	n/a	RESPONSE	        M7	1	02	D3	press
662.27	n/a	RESPONSE	        M7	1	19	G4	release
662.32	n/a	RESPONSE	        M7	1	07	G3	release
662.662	n/a	RESPONSE	        M7	1	07	G3	press
662.673	n/a	RESPONSE	        M7	1	17	F4	press
662.714	n/a	RESPONSE	        M7	1	02	D3	release
662.725	n/a	RESPONSE	        M7	1	00	C3	release
662.757	n/a	RESPONSE	        M7	1	16	E4	release
663.13	n/a	RESPONSE	        M7	1	04	E3	press
663.139	n/a	RESPONSE	        M7	1	19	G4	press
663.24	n/a	RESPONSE	        M7	1	17	F4	release
663.243	n/a	RESPONSE	        M7	1	07	G3	release
663.603	n/a	RESPONSE	        M7	1	07	G3	press
663.76	n/a	RESPONSE	        M7	1	04	E3	release
667.08	n/a	RESPONSE	        M7	1	07	G3	release
669.436	6.317	CUE_LISTEN	        M7	2	n/a	n/a	n/a
675.752	7.758	FIXCROSS	n/a	n/a	n/a	n/a	n/a
677.263	n/a	RESPONSE	        M7	2	19	G4	release
683.511	6.317	CUE_PLAYBACK_BOTH_HANDS	        M7	2	n/a	n/a	n/a
684.16	n/a	RESPONSE	        M7	2	00	C3	press
684.165	n/a	RESPONSE	        M7	2	19	G4	press
684.635	n/a	RESPONSE	        M7	2	07	G3	press
684.64	n/a	RESPONSE	        M7	2	21	A4	press
684.73	n/a	RESPONSE	        M7	2	19	G4	release
684.753	n/a	RESPONSE	        M7	2	00	C3	release
685.128	n/a	RESPONSE	        M7	2	19	G4	press
685.148	n/a	RESPONSE	        M7	2	04	E3	press
685.174	n/a	RESPONSE	        M7	2	05	F3	press
685.303	n/a	RESPONSE	        M7	2	21	A4	release
685.305	n/a	RESPONSE	        M7	2	07	G3	release
685.595	n/a	RESPONSE	        M7	2	17	F4	press
686.133	n/a	RESPONSE	        M7	2	16	E4	press
686.244	n/a	RESPONSE	        M7	2	19	G4	release
686.43	n/a	RESPONSE	        M7	2	17	F4	release
687.122	n/a	RESPONSE	        M7	2	14	D4	press
687.124	n/a	RESPONSE	        M7	2	05	F3	release
687.159	n/a	RESPONSE	        M7	2	00	C3	press
687.163	n/a	RESPONSE	        M7	2	02	D3	press
687.17	n/a	RESPONSE	        M7	2	04	E3	release
687.245	n/a	RESPONSE	        M7	2	16	E4	release
687.779	n/a	RESPONSE	        M7	2	14	D4	release
687.96	n/a	RESPONSE	        M7	2	00	C3	release
688.072	n/a	RESPONSE	        M7	2	02	D3	release
688.343	n/a	RESPONSE	        M7	2	19	G4	press
688.364	n/a	RESPONSE	        M7	2	02	D3	press
688.865	n/a	RESPONSE	        M7	2	07	G3	press
688.887	n/a	RESPONSE	        M7	2	21	A4	press
688.948	n/a	RESPONSE	        M7	2	02	D3	release
688.972	n/a	RESPONSE	        M7	2	19	G4	release
689.36	n/a	RESPONSE	        M7	2	19	G4	press
689.394	n/a	RESPONSE	        M7	2	05	F3	press
689.423	n/a	RESPONSE	        M7	2	04	E3	press
689.514	n/a	RESPONSE	        M7	2	07	G3	release
689.575	n/a	RESPONSE	        M7	2	21	A4	release
689.828	7.758	FIXCROSS	n/a	n/a	n/a	n/a	n/a
690.857	n/a	RESPONSE	        M7	2	09	A3	press
690.859	n/a	RESPONSE	        M7	2	17	F4	press
690.869	n/a	RESPONSE	        M7	2	07	G3	press
690.9	n/a	RESPONSE	        M7	2	04	E3	release
690.924	n/a	RESPONSE	        M7	2	05	F3	release
691.113	n/a	RESPONSE	        M7	2	19	G4	release
691.314	n/a	RESPONSE	        M7	2	02	D3	press
691.355	n/a	RESPONSE	        M7	2	16	E4	press
691.407	n/a	RESPONSE	        M7	2	07	G3	release
691.418	n/a	RESPONSE	        M7	2	09	A3	release
691.559	n/a	RESPONSE	        M7	2	17	F4	release
692.05	n/a	RESPONSE	        M7	2	07	G3	press
692.092	n/a	RESPONSE	        M7	2	14	D4	press
692.094	n/a	RESPONSE	        M7	2	12	C4	press
692.164	n/a	RESPONSE	        M7	2	02	D3	release
692.235	n/a	RESPONSE	        M7	2	16	E4	release
692.377	n/a	RESPONSE	        M7	2	12	C4	release
692.428	n/a	RESPONSE	        M7	2	07	G3	release
692.43	n/a	RESPONSE	        M7	2	14	D4	release
692.88	n/a	RESPONSE	        M7	2	02	D3	press
692.912	n/a	RESPONSE	        M7	2	14	D4	press
693.403	n/a	RESPONSE	        M7	2	07	G3	press
693.484	n/a	RESPONSE	        M7	2	02	D3	release
693.585	n/a	RESPONSE	        M7	2	14	D4	release
693.714	n/a	RESPONSE	        M7	2	07	G3	release
693.797	n/a	RESPONSE	        M7	2	14	D4	press
693.805	n/a	RESPONSE	        M7	2	02	D3	press
694.278	n/a	RESPONSE	        M7	2	02	D3	release
694.354	n/a	RESPONSE	        M7	2	14	D4	release
694.563	n/a	RESPONSE	        M7	2	14	D4	press
694.59	n/a	RESPONSE	        M7	2	02	D3	press
694.965	n/a	RESPONSE	        M7	2	07	G3	press
695.088	n/a	RESPONSE	        M7	2	02	D3	release
695.233	n/a	RESPONSE	        M7	2	14	D4	release
695.28	n/a	RESPONSE	        M7	2	07	G3	release
695.385	n/a	RESPONSE	        M7	2	14	D4	press
695.389	n/a	RESPONSE	        M7	2	02	D3	press
695.925	n/a	RESPONSE	        M7	2	02	D3	release
696.027	n/a	RESPONSE	        M7	2	14	D4	release
697.586	6.325	CUE_LISTEN	        M4	1	n/a	n/a	n/a
703.553	n/a	RESPONSE	        M4	1	04	E3	press
703.911	7.758	FIXCROSS	n/a	n/a	n/a	n/a	n/a
705.27	n/a	RESPONSE	        M4	1	16	E4	press
707.994	n/a	RESPONSE	        M4	1	04	E3	release
708.185	n/a	RESPONSE	        M4	1	16	E4	release
711.51	n/a	RESPONSE	        M4	1	09	A3	press
711.669	6.317	CUE_PLAYBACK_BOTH_HANDS	        M4	1	n/a	n/a	n/a
712.079	n/a	RESPONSE	        M4	1	09	A3	release
712.44	n/a	RESPONSE	        M4	1	16	E4	press
712.452	n/a	RESPONSE	        M4	1	04	E3	press
712.503	n/a	RESPONSE	        M4	1	14	D4	press
713.107	n/a	RESPONSE	        M4	1	11	B3	press
713.245	n/a	RESPONSE	        M4	1	15	D#4	press
713.248	n/a	RESPONSE	        M4	1	14	D4	release
713.308	n/a	RESPONSE	        M4	1	16	E4	release
713.629	n/a	RESPONSE	        M4	1	15	D#4	release
713.859	n/a	RESPONSE	        M4	1	11	B3	release
714.063	n/a	RESPONSE	        M4	1	16	E4	press
714.107	n/a	RESPONSE	        M4	1	14	D4	press
714.987	n/a	RESPONSE	        M4	1	17	F4	press
715.019	n/a	RESPONSE	        M4	1	11	B3	press
715.174	n/a	RESPONSE	        M4	1	14	D4	release
715.275	n/a	RESPONSE	        M4	1	15	D#4	press
715.349	n/a	RESPONSE	        M4	1	16	E4	release
715.353	n/a	RESPONSE	        M4	1	17	F4	release
715.72	n/a	RESPONSE	        M4	1	17	F4	press
715.757	n/a	RESPONSE	        M4	1	16	E4	press
715.815	n/a	RESPONSE	        M4	1	15	D#4	release
715.827	n/a	RESPONSE	        M4	1	14	D4	press
717.135	n/a	RESPONSE	        M4	1	19	G4	press
717.362	n/a	RESPONSE	        M4	1	17	F4	release
717.563	n/a	RESPONSE	        M4	1	14	D4	release
717.808	n/a	RESPONSE	        M4	1	04	E3	release
717.817	n/a	RESPONSE	        M4	1	16	E4	release
717.986	7.758	FIXCROSS	n/a	n/a	n/a	n/a	n/a
718.0	n/a	RESPONSE	        M4	1	11	B3	release
718.289	n/a	RESPONSE	        M4	1	09	A3	press
718.4	n/a	RESPONSE	        M4	1	11	B3	press
718.822	n/a	RESPONSE	        M4	1	19	G4	release
718.903	n/a	RESPONSE	        M4	1	11	B3	release
719.027	n/a	RESPONSE	        M4	1	19	G4	press
719.065	n/a	RESPONSE	        M4	1	11	B3	press
719.357	n/a	RESPONSE	        M4	1	21	A4	press
719.418	n/a	RESPONSE	        M4	1	19	G4	release
719.689	n/a	RESPONSE	        M4	1	19	G4	press
719.803	n/a	RESPONSE	        M4	1	21	A4	release
720.312	n/a	RESPONSE	        M4	1	11	B3	release
720.493	n/a	RESPONSE	        M4	1	19	G4	release
720.635	n/a	RESPONSE	        M4	1	09	A3	release
723.457	n/a	RESPONSE	        M4	1	07	G3	press
725.744	6.317	CUE_LISTEN	        M4	2	n/a	n/a	n/a
732.061	7.758	FIXCROSS	n/a	n/a	n/a	n/a	n/a
739.819	6.317	CUE_PLAYBACK_BOTH_HANDS	        M4	2	n/a	n/a	n/a
740.328	n/a	RESPONSE	        M4	2	17	F4	press
740.369	n/a	RESPONSE	        M4	2	16	E4	press
740.75	n/a	RESPONSE	        M4	2	16	E4	release
740.802	n/a	RESPONSE	        M4	2	17	F4	release
741.093	n/a	RESPONSE	        M4	2	12	C4	press
741.564	n/a	RESPONSE	        M4	2	07	G3	release
742.075	n/a	RESPONSE	        M4	2	12	C4	release
742.287	n/a	RESPONSE	        M4	2	17	F4	press
742.298	n/a	RESPONSE	        M4	2	07	G3	press
742.339	n/a	RESPONSE	        M4	2	16	E4	press
742.9	n/a	RESPONSE	        M4	2	12	C4	press
742.952	n/a	RESPONSE	        M4	2	16	E4	release
743.023	n/a	RESPONSE	        M4	2	17	F4	release
743.114	n/a	RESPONSE	        M4	2	07	G3	release
743.735	n/a	RESPONSE	        M4	2	11	B3	press
743.965	n/a	RESPONSE	        M4	2	12	C4	release
744.462	n/a	RESPONSE	        M4	2	12	C4	press
744.658	n/a	RESPONSE	        M4	2	11	B3	release
745.113	n/a	RESPONSE	        M4	2	09	A3	press
745.237	n/a	RESPONSE	        M4	2	12	C4	release
745.92	n/a	RESPONSE	        M4	2	12	C4	press
746.136	7.758	FIXCROSS	n/a	n/a	n/a	n/a	n/a
746.177	n/a	RESPONSE	        M4	2	09	A3	release
746.198	n/a	RESPONSE	        M4	2	12	C4	release
750.919	n/a	RESPONSE	        M4	2	07	G3	press
751.38	n/a	RESPONSE	        M4	2	17	F4	press
752.532	n/a	RESPONSE	        M4	2	07	G3	release
753.894	6.325	CUE_LISTEN	        M2	1	n/a	n/a	n/a
755.838	n/a	RESPONSE	        M2	1	17	F4	release
760.219	7.758	FIXCROSS	n/a	n/a	n/a	n/a	n/a
767.162	n/a	RESPONSE	        M2	1	24	C5	press
767.978	6.317	CUE_PLAYBACK_RIGHT_HAND	        M2	1	n/a	n/a	n/a
770.183	n/a	RESPONSE	        M2	1	24	C5	release
770.724	n/a	RESPONSE	        M2	1	24	C5	press
771.514	n/a	RESPONSE	        M2	1	24	C5	release
771.685	n/a	RESPONSE	        M2	1	24	C5	press
772.119	n/a	RESPONSE	        M2	1	21	A4	press
772.168	n/a	RESPONSE	        M2	1	23	B4	press
772.329	n/a	RESPONSE	        M2	1	23	B4	release
772.42	n/a	RESPONSE	        M2	1	21	A4	release
772.752	n/a	RESPONSE	        M2	1	24	C5	release
772.893	n/a	RESPONSE	        M2	1	24	C5	press
773.214	n/a	RESPONSE	        M2	1	21	A4	press
773.345	n/a	RESPONSE	        M2	1	24	C5	release
773.469	n/a	RESPONSE	        M2	1	21	A4	release
773.55	n/a	RESPONSE	        M2	1	21	A4	press
773.863	n/a	RESPONSE	        M2	1	19	G4	press
774.028	n/a	RESPONSE	        M2	1	21	A4	release
774.173	n/a	RESPONSE	        M2	1	17	F4	press
774.283	n/a	RESPONSE	        M2	1	19	G4	release
774.294	7.758	FIXCROSS	n/a	n/a	n/a	n/a	n/a
774.498	n/a	RESPONSE	        M2	1	19	G4	press
774.605	n/a	RESPONSE	        M2	1	17	F4	release
774.834	n/a	RESPONSE	        M2	1	21	A4	press
775.019	n/a	RESPONSE	        M2	1	19	G4	release
775.432	n/a	RESPONSE	        M2	1	21	A4	release
775.499	n/a	RESPONSE	        M2	1	24	C5	press
775.822	n/a	RESPONSE	        M2	1	21	A4	press
775.887	n/a	RESPONSE	        M2	1	24	C5	release
776.068	n/a	RESPONSE	        M2	1	21	A4	release
776.158	n/a	RESPONSE	        M2	1	21	A4	press
776.479	n/a	RESPONSE	        M2	1	19	G4	press
776.602	n/a	RESPONSE	        M2	1	21	A4	release
776.794	n/a	RESPONSE	        M2	1	17	F4	press
776.867	n/a	RESPONSE	        M2	1	19	G4	release
777.138	n/a	RESPONSE	        M2	1	16	E4	press
777.239	n/a	RESPONSE	        M2	1	17	F4	release
777.509	n/a	RESPONSE	        M2	1	14	D4	press
777.612	n/a	RESPONSE	        M2	1	16	E4	release
779.513	n/a	RESPONSE	        M2	1	14	D4	release
782.053	6.317	CUE_LISTEN	        M2	2	n/a	n/a	n/a
788.369	7.758	FIXCROSS	n/a	n/a	n/a	n/a	n/a
796.128	6.325	CUE_PLAYBACK_RIGHT_HAND	        M2	2	n/a	n/a	n/a
796.842	n/a	RESPONSE	        M2	2	12	C4	press
797.188	n/a	RESPONSE	        M2	2	14	D4	press
797.327	n/a	RESPONSE	        M2	2	12	C4	release
797.577	n/a	RESPONSE	        M2	2	16	E4	press
797.698	n/a	RESPONSE	        M2	2	14	D4	release
797.952	n/a	RESPONSE	        M2	2	14	D4	press
798.03	n/a	RESPONSE	        M2	2	16	E4	release
798.292	n/a	RESPONSE	        M2	2	16	E4	press
798.383	n/a	RESPONSE	        M2	2	14	D4	release
798.654	n/a	RESPONSE	        M2	2	17	F4	press
798.757	n/a	RESPONSE	        M2	2	16	E4	release
799.039	n/a	RESPONSE	        M2	2	19	G4	press
799.129	n/a	RESPONSE	        M2	2	17	F4	release
799.619	n/a	RESPONSE	        M2	2	19	G4	release
799.76	n/a	RESPONSE	        M2	2	16	E4	press
800.102	n/a	RESPONSE	        M2	2	19	G4	press
800.213	n/a	RESPONSE	        M2	2	16	E4	release
800.354	n/a	RESPONSE	        M2	2	19	G4	release
800.465	n/a	RESPONSE	        M2	2	19	G4	press
800.808	n/a	RESPONSE	        M2	2	17	F4	press
801.148	n/a	RESPONSE	        M2	2	16	E4	press
801.189	n/a	RESPONSE	        M2	2	19	G4	release
801.32	n/a	RESPONSE	        M2	2	17	F4	release
801.502	n/a	RESPONSE	        M2	2	14	D4	press
801.624	n/a	RESPONSE	        M2	2	16	E4	release
801.934	n/a	RESPONSE	        M2	2	12	C4	press
802.453	7.758	FIXCROSS	n/a	n/a	n/a	n/a	n/a
802.735	n/a	RESPONSE	        M2	2	14	D4	release
802.907	n/a	RESPONSE	        M2	2	12	C4	release
809.565	n/a	RESPONSE	        M2	2	07	G3	press
810.211	6.317	CUE_LISTEN	        M8	1	n/a	n/a	n/a
815.655	n/a	RESPONSE	        M8	1	07	G3	release
816.528	7.758	FIXCROSS	n/a	n/a	n/a	n/a	n/a
818.527	n/a	RESPONSE	        M8	1	11	B3	press
819.109	n/a	RESPONSE	        M8	1	14	D4	press
819.14	n/a	RESPONSE	        M8	1	11	B3	release
820.232	n/a	RESPONSE	        M8	1	14	D4	release
824.286	6.317	CUE_PLAYBACK_RIGHT_HAND	        M8	1	n/a	n/a	n/a
825.08	n/a	RESPONSE	        M8	1	12	C4	press
825.457	n/a	RESPONSE	        M8	1	14	D4	press
825.605	n/a	RESPONSE	        M8	1	12	C4	release
825.808	n/a	RESPONSE	        M8	1	19	G4	press
825.82	n/a	RESPONSE	        M8	1	17	F4	press
826.008	n/a	RESPONSE	        M8	1	14	D4	release
826.079	n/a	RESPONSE	        M8	1	17	F4	release
826.15	n/a	RESPONSE	        M8	1	19	G4	release
826.438	n/a	RESPONSE	        M8	1	19	G4	press
827.768	n/a	RESPONSE	        M8	1	15	D#4	press
828.798	n/a	RESPONSE	        M8	1	19	G4	release
829.349	n/a	RESPONSE	        M8	1	17	F4	press
829.44	n/a	RESPONSE	        M8	1	15	D#4	release
829.923	n/a	RESPONSE	        M8	1	17	F4	release
830.583	n/a	RESPONSE	        M8	1	19	G4	press
830.603	7.758	FIXCROSS	n/a	n/a	n/a	n/a	n/a
831.454	n/a	RESPONSE	        M8	1	16	E4	press
831.805	n/a	RESPONSE	        M8	1	15	D#4	press
831.947	n/a	RESPONSE	        M8	1	15	D#4	release
832.288	n/a	RESPONSE	        M8	1	14	D4	press
832.329	n/a	RESPONSE	        M8	1	19	G4	release
833.04	n/a	RESPONSE	        M8	1	13	C#4	press
833.084	n/a	RESPONSE	        M8	1	16	E4	release
833.153	n/a	RESPONSE	        M8	1	14	D4	release
833.759	n/a	RESPONSE	        M8	1	11	B3	press
833.762	n/a	RESPONSE	        M8	1	12	C4	press
833.834	n/a	RESPONSE	        M8	1	13	C#4	release
834.248	n/a	RESPONSE	        M8	1	12	C4	release
834.257	n/a	RESPONSE	        M8	1	11	B3	release
838.361	6.325	CUE_LISTEN	        M8	2	n/a	n/a	n/a
844.686	7.758	FIXCROSS	n/a	n/a	n/a	n/a	n/a
852.445	6.317	CUE_PLAYBACK_RIGHT_HAND	        M8	2	n/a	n/a	n/a
853.053	n/a	RESPONSE	        M8	2	11	B3	press
853.404	n/a	RESPONSE	        M8	2	14	D4	press
853.535	n/a	RESPONSE	        M8	2	11	B3	release
853.768	n/a	RESPONSE	        M8	2	17	F4	press
853.915	n/a	RESPONSE	        M8	2	14	D4	release
854.248	n/a	RESPONSE	        M8	2	17	F4	release
854.453	n/a	RESPONSE	        M8	2	17	F4	press
855.147	n/a	RESPONSE	        M8	2	13	C#4	press
855.2	n/a	RESPONSE	        M8	2	17	F4	release
855.78	n/a	RESPONSE	        M8	2	16	E4	press
855.906	n/a	RESPONSE	        M8	2	13	C#4	release
857.078	n/a	RESPONSE	        M8	2	17	F4	press
857.179	n/a	RESPONSE	        M8	2	16	E4	release
858.013	n/a	RESPONSE	        M8	2	16	E4	press
858.204	n/a	RESPONSE	        M8	2	17	F4	release
858.378	n/a	RESPONSE	        M8	2	14	D4	press
858.668	n/a	RESPONSE	        M8	2	16	E4	release
858.761	7.758	FIXCROSS	n/a	n/a	n/a	n/a	n/a
858.788	n/a	RESPONSE	        M8	2	13	C#4	press
858.879	n/a	RESPONSE	        M8	2	14	D4	release
859.12	n/a	RESPONSE	        M8	2	14	D4	press
859.173	n/a	RESPONSE	        M8	2	13	C#4	release
859.753	n/a	RESPONSE	        M8	2	11	B3	press
859.847	n/a	RESPONSE	        M8	2	14	D4	release
860.975	n/a	RESPONSE	        M8	2	11	B3	release
865.045	n/a	RESPONSE	        M8	2	07	G3	press
865.808	n/a	RESPONSE	        M8	2	07	G3	release
866.52	6.325	CUE_LISTEN	        M6	1	n/a	n/a	n/a
872.845	7.758	FIXCROSS	n/a	n/a	n/a	n/a	n/a
876.895	n/a	RESPONSE	        M6	1	12	C4	press
880.603	6.317	CUE_PLAYBACK_BOTH_HANDS	        M6	1	n/a	n/a	n/a
881.099	n/a	RESPONSE	        M6	1	12	C4	release
881.329	n/a	RESPONSE	        M6	1	12	C4	press
881.35	n/a	RESPONSE	        M6	1	05	F3	press
881.382	n/a	RESPONSE	        M6	1	09	A3	press
881.715	n/a	RESPONSE	        M6	1	16	E4	press
882.104	n/a	RESPONSE	        M6	1	19	G4	press
882.195	n/a	RESPONSE	        M6	1	16	E4	release
882.477	n/a	RESPONSE	        M6	1	17	F4	press
882.868	n/a	RESPONSE	        M6	1	16	E4	press
882.939	n/a	RESPONSE	        M6	1	19	G4	release
883.122	n/a	RESPONSE	        M6	1	17	F4	release
883.264	n/a	RESPONSE	        M6	1	14	D4	press
883.353	n/a	RESPONSE	        M6	1	16	E4	release
883.644	n/a	RESPONSE	        M6	1	16	E4	press
883.772	n/a	RESPONSE	        M6	1	14	D4	release
884.105	n/a	RESPONSE	        M6	1	09	A3	release
884.123	n/a	RESPONSE	        M6	1	16	E4	release
884.18	n/a	RESPONSE	        M6	1	12	C4	release
884.188	n/a	RESPONSE	        M6	1	05	F3	release
884.394	n/a	RESPONSE	        M6	1	12	C4	press
884.442	n/a	RESPONSE	        M6	1	09	A3	press
884.588	n/a	RESPONSE	        M6	1	05	F3	press
884.784	n/a	RESPONSE	        M6	1	17	F4	press
884.786	n/a	RESPONSE	        M6	1	16	E4	press
885.189	n/a	RESPONSE	        M6	1	19	G4	press
885.222	n/a	RESPONSE	        M6	1	21	A4	press
885.269	n/a	RESPONSE	        M6	1	16	E4	release
885.397	n/a	RESPONSE	        M6	1	17	F4	release
885.423	n/a	RESPONSE	        M6	1	21	A4	release
885.605	n/a	RESPONSE	        M6	1	17	F4	press
885.973	n/a	RESPONSE	        M6	1	16	E4	press
886.112	n/a	RESPONSE	        M6	1	19	G4	release
886.248	n/a	RESPONSE	        M6	1	17	F4	release
886.358	n/a	RESPONSE	        M6	1	14	D4	press
886.443	n/a	RESPONSE	        M6	1	16	E4	release
886.708	n/a	RESPONSE	        M6	1	16	E4	press
886.849	n/a	RESPONSE	        M6	1	14	D4	release
886.92	7.758	FIXCROSS	n/a	n/a	n/a	n/a	n/a
887.207	n/a	RESPONSE	        M6	1	09	A3	release
887.259	n/a	RESPONSE	        M6	1	16	E4	release
887.273	n/a	RESPONSE	        M6	1	12	C4	release
887.323	n/a	RESPONSE	        M6	1	05	F3	release
894.678	6.317	CUE_LISTEN	        M6	2	n/a	n/a	n/a
900.995	7.758	FIXCROSS	n/a	n/a	n/a	n/a	n/a
908.753	200.791	CUE_PLAYBACK_BOTH_HANDS	        M6	2	n/a	n/a	n/a
910.319	n/a	RESPONSE	        M6	2	12	C4	press
910.363	n/a	RESPONSE	        M6	2	09	A3	press
910.782	n/a	RESPONSE	        M6	2	16	E4	press
910.793	n/a	RESPONSE	        M6	2	17	F4	press
910.974	n/a	RESPONSE	        M6	2	17	F4	release
911.695	n/a	RESPONSE	        M6	2	17	F4	press
912.806	n/a	RESPONSE	        M6	2	19	G4	press
912.928	n/a	RESPONSE	        M6	2	16	E4	release
913.169	n/a	RESPONSE	        M6	2	21	A4	press
913.244	n/a	FIXCROSS	n/a	n/a	n/a	n/a	n/a
913.27	n/a	RESPONSE	        M6	2	17	F4	release
913.283	n/a	RESPONSE	        M6	2	19	G4	release
913.852	n/a	RESPONSE	        M6	2	21	A4	release
913.959	n/a	RESPONSE	        M6	2	20	G#4	press
914.386	n/a	RESPONSE	        M6	2	19	G4	press
914.426	n/a	RESPONSE	        M6	2	17	F4	press
914.649	n/a	RESPONSE	        M6	2	20	G#4	release
914.83	n/a	RESPONSE	        M6	2	19	G4	release
915.24	n/a	RESPONSE	        M6	2	17	F4	release
915.338	n/a	RESPONSE	        M6	2	09	A3	release
915.346	n/a	RESPONSE	        M6	2	12	C4	release
915.74	n/a	RESPONSE	        M6	2	12	C4	press
915.792	n/a	RESPONSE	        M6	2	09	A3	press
916.348	n/a	RESPONSE	        M6	2	17	F4	press
916.359	n/a	RESPONSE	        M6	2	16	E4	press
917.083	n/a	RESPONSE	        M6	2	20	G#4	press
917.18	n/a	RESPONSE	        M6	2	16	E4	release
917.255	n/a	RESPONSE	        M6	2	17	F4	release
917.883	n/a	RESPONSE	        M6	2	12	C4	release
917.963	n/a	RESPONSE	        M6	2	20	G#4	release
917.974	n/a	RESPONSE	        M6	2	09	A3	release
