onset	duration	trial_type	trial_number	stroop_condition	stim_text(PL)	stim_text(eng)	stim_color(PL)	stim_color(eng)	response_type	response_color
0.0	n/a	RESPONSE	n/a	n/a	n/a	n/a	n/a	n/a	n/a	n/a
0.0598	1.0333	ITI	n/a	n/a	n/a	n/a	n/a	n/a	n/a	n/a
1.0931	0.5167	FIXCROSS	n/a	n/a	n/a	n/a	n/a	n/a	n/a	n/a
1.6098	0.7833	T_INK	1	Neutral	xxxxxxxx	xxxxxxxx	żółty	yellow	hit	n/a
2.3674	n/a	RESPONSE	n/a	n/a	n/a	n/a	n/a	n/a	n/a	yellow
2.3931	0.5167	FEEDBACK	n/a	n/a	n/a	n/a	n/a	n/a	n/a	n/a
2.9098	1.0167	ITI	n/a	n/a	n/a	n/a	n/a	n/a	n/a	n/a
3.9265	0.5167	FIXCROSS	n/a	n/a	n/a	n/a	n/a	n/a	n/a	n/a
4.4431	0.6833	T_INK	2	Incongruent	zielony	green	niebieski	blue	hit	n/a
5.1028	n/a	RESPONSE	n/a	n/a	n/a	n/a	n/a	n/a	n/a	blue
5.1265	0.5167	FEEDBACK	n/a	n/a	n/a	n/a	n/a	n/a	n/a	n/a
5.6432	1.0167	ITI	n/a	n/a	n/a	n/a	n/a	n/a	n/a	n/a
6.6598	0.5167	FIXCROSS	n/a	n/a	n/a	n/a	n/a	n/a	n/a	n/a
7.1765	0.6	T_INK	3	Neutral	xxxxxxx	xxxxxxx	czerwony	red	hit	n/a
7.7423	n/a	RESPONSE	n/a	n/a	n/a	n/a	n/a	n/a	n/a	red
7.7765	0.5167	FEEDBACK	n/a	n/a	n/a	n/a	n/a	n/a	n/a	n/a
8.2932	1.0167	ITI	n/a	n/a	n/a	n/a	n/a	n/a	n/a	n/a
9.3099	0.5167	FIXCROSS	n/a	n/a	n/a	n/a	n/a	n/a	n/a	n/a
9.8265	0.6667	T_INK	4	Neutral	xxxxxxx	xxxxxxx	żółty	yellow	incorrect	n/a
10.4617	n/a	RESPONSE	n/a	n/a	n/a	n/a	n/a	n/a	n/a	green
10.4932	0.5167	FEEDBACK	n/a	n/a	n/a	n/a	n/a	n/a	n/a	n/a
10.5257	n/a	RESPONSE	n/a	n/a	n/a	n/a	n/a	n/a	n/a	yellow
11.0099	1.0167	ITI	n/a	n/a	n/a	n/a	n/a	n/a	n/a	n/a
12.0266	0.5167	FIXCROSS	n/a	n/a	n/a	n/a	n/a	n/a	n/a	n/a
12.5432	0.8	T_INK	5	Incongruent	żółty	yellow	zielony	green	hit	n/a
13.309	n/a	RESPONSE	n/a	n/a	n/a	n/a	n/a	n/a	n/a	green
13.3432	0.5167	FEEDBACK	n/a	n/a	n/a	n/a	n/a	n/a	n/a	n/a
13.8599	1.0167	ITI	n/a	n/a	n/a	n/a	n/a	n/a	n/a	n/a
14.8766	0.5167	FIXCROSS	n/a	n/a	n/a	n/a	n/a	n/a	n/a	n/a
15.3933	0.6	T_INK	6	Incongruent	czerwony	red	żółty	yellow	hit	n/a
15.9645	n/a	RESPONSE	n/a	n/a	n/a	n/a	n/a	n/a	n/a	yellow
15.9933	0.5167	FEEDBACK	n/a	n/a	n/a	n/a	n/a	n/a	n/a	n/a
16.51	1.0167	ITI	n/a	n/a	n/a	n/a	n/a	n/a	n/a	n/a
17.5266	0.5167	FIXCROSS	n/a	n/a	n/a	n/a	n/a	n/a	n/a	n/a
18.0433	0.6	T_INK	7	Incongruent	żółty	yellow	czerwony	red	hit	n/a
18.6199	n/a	RESPONSE	n/a	n/a	n/a	n/a	n/a	n/a	n/a	red
18.6433	0.5167	FEEDBACK	n/a	n/a	n/a	n/a	n/a	n/a	n/a	n/a
19.16	1.0167	ITI	n/a	n/a	n/a	n/a	n/a	n/a	n/a	n/a
20.1767	0.5167	FIXCROSS	n/a	n/a	n/a	n/a	n/a	n/a	n/a	n/a
20.6933	0.6	T_INK	8	Incongruent	czerwony	red	zielony	green	hit	n/a
21.2593	n/a	RESPONSE	n/a	n/a	n/a	n/a	n/a	n/a	n/a	green
21.2933	0.5167	FEEDBACK	n/a	n/a	n/a	n/a	n/a	n/a	n/a	n/a
21.81	1.0167	ITI	n/a	n/a	n/a	n/a	n/a	n/a	n/a	n/a
22.8267	0.5167	FIXCROSS	n/a	n/a	n/a	n/a	n/a	n/a	n/a	n/a
23.3434	0.5	T_INK	9	Neutral	xxxxxxxxx	xxxxxxxxx	zielony	green	hit	n/a
23.8188	n/a	RESPONSE	n/a	n/a	n/a	n/a	n/a	n/a	n/a	green
23.8434	0.5167	FEEDBACK	n/a	n/a	n/a	n/a	n/a	n/a	n/a	n/a
24.36	1.0167	ITI	n/a	n/a	n/a	n/a	n/a	n/a	n/a	n/a
25.3767	0.5167	FIXCROSS	n/a	n/a	n/a	n/a	n/a	n/a	n/a	n/a
25.8934	0.3833	T_INK	10	Incongruent	żółty	yellow	niebieski	blue	hit	n/a
26.2503	n/a	RESPONSE	n/a	n/a	n/a	n/a	n/a	n/a	n/a	blue
26.2767	0.5167	FEEDBACK	n/a	n/a	n/a	n/a	n/a	n/a	n/a	n/a
26.7934	1.0167	ITI	n/a	n/a	n/a	n/a	n/a	n/a	n/a	n/a
27.8101	0.5167	FIXCROSS	n/a	n/a	n/a	n/a	n/a	n/a	n/a	n/a
28.3267	0.5667	T_INK	11	Neutral	xxxxxxx	xxxxxxx	niebieski	blue	hit	n/a
28.8737	n/a	RESPONSE	n/a	n/a	n/a	n/a	n/a	n/a	n/a	blue
28.8934	0.5167	FEEDBACK	n/a	n/a	n/a	n/a	n/a	n/a	n/a	n/a
29.4101	1.0167	ITI	n/a	n/a	n/a	n/a	n/a	n/a	n/a	n/a
30.4268	0.5167	FIXCROSS	n/a	n/a	n/a	n/a	n/a	n/a	n/a	n/a
30.9434	0.5	T_INK	12	Neutral	xxxxxxxx	xxxxxxxx	zielony	green	incorrect	n/a
31.4171	n/a	RESPONSE	n/a	n/a	n/a	n/a	n/a	n/a	n/a	red
31.4435	0.5167	FEEDBACK	n/a	n/a	n/a	n/a	n/a	n/a	n/a	n/a
31.9601	1.0333	ITI	n/a	n/a	n/a	n/a	n/a	n/a	n/a	n/a
36.2481	n/a	RESPONSE	n/a	n/a	n/a	n/a	n/a	n/a	n/a	n/a
36.3102	1.0167	ITI	n/a	n/a	n/a	n/a	n/a	n/a	n/a	n/a
37.3268	0.5167	FIXCROSS	n/a	n/a	n/a	n/a	n/a	n/a	n/a	n/a
37.8435	0.75	INK	1	Neutral	xxxxxxxx	xxxxxxxx	zielony	green	hit	n/a
38.5676	n/a	RESPONSE	n/a	n/a	n/a	n/a	n/a	n/a	n/a	green
38.5935	1.0167	ITI	n/a	n/a	n/a	n/a	n/a	n/a	n/a	n/a
39.6102	0.5167	FIXCROSS	n/a	n/a	n/a	n/a	n/a	n/a	n/a	n/a
40.1269	0.45	INK	2	Neutral	xxxxx	xxxxx	czerwony	red	hit	n/a
40.5512	n/a	RESPONSE	n/a	n/a	n/a	n/a	n/a	n/a	n/a	red
40.5769	1.0167	ITI	n/a	n/a	n/a	n/a	n/a	n/a	n/a	n/a
41.5936	0.5167	FIXCROSS	n/a	n/a	n/a	n/a	n/a	n/a	n/a	n/a
42.1102	0.5333	INK	3	Neutral	xxxxxxx	xxxxxxx	niebieski	blue	hit	n/a
42.6147	n/a	RESPONSE	n/a	n/a	n/a	n/a	n/a	n/a	n/a	blue
42.6436	1.0167	ITI	n/a	n/a	n/a	n/a	n/a	n/a	n/a	n/a
43.6603	0.5167	FIXCROSS	n/a	n/a	n/a	n/a	n/a	n/a	n/a	n/a
44.1769	0.5167	INK	4	Neutral	xxxxx	xxxxx	zielony	green	hit	n/a
44.6623	n/a	RESPONSE	n/a	n/a	n/a	n/a	n/a	n/a	n/a	green
44.6936	1.0167	ITI	n/a	n/a	n/a	n/a	n/a	n/a	n/a	n/a
45.7103	0.5167	FIXCROSS	n/a	n/a	n/a	n/a	n/a	n/a	n/a	n/a
46.227	0.5333	INK	5	Neutral	xxxxxxxx	xxxxxxxx	zielony	green	incorrect	n/a
46.7419	n/a	RESPONSE	n/a	n/a	n/a	n/a	n/a	n/a	n/a	blue
46.7603	1.0167	ITI	n/a	n/a	n/a	n/a	n/a	n/a	n/a	n/a
46.8698	n/a	RESPONSE	n/a	n/a	n/a	n/a	n/a	n/a	n/a	green
47.777	0.5167	FIXCROSS	n/a	n/a	n/a	n/a	n/a	n/a	n/a	n/a
48.2936	0.6667	INK	6	Incongruent	żółty	yellow	czerwony	red	hit	n/a
48.9334	n/a	RESPONSE	n/a	n/a	n/a	n/a	n/a	n/a	n/a	red
48.9603	1.0167	ITI	n/a	n/a	n/a	n/a	n/a	n/a	n/a	n/a
49.977	0.5167	FIXCROSS	n/a	n/a	n/a	n/a	n/a	n/a	n/a	n/a
50.4937	0.4833	INK	7	Neutral	xxxxxxxxx	xxxxxxxxx	czerwony	red	hit	n/a
50.9489	n/a	RESPONSE	n/a	n/a	n/a	n/a	n/a	n/a	n/a	red
50.977	1.0167	ITI	n/a	n/a	n/a	n/a	n/a	n/a	n/a	n/a
51.9937	0.5167	FIXCROSS	n/a	n/a	n/a	n/a	n/a	n/a	n/a	n/a
52.5104	0.5	INK	8	Neutral	xxxxxxxxx	xxxxxxxxx	zielony	green	hit	n/a
52.9805	n/a	RESPONSE	n/a	n/a	n/a	n/a	n/a	n/a	n/a	green
53.0104	1.0167	ITI	n/a	n/a	n/a	n/a	n/a	n/a	n/a	n/a
54.0271	0.5167	FIXCROSS	n/a	n/a	n/a	n/a	n/a	n/a	n/a	n/a
54.5437	0.5	INK	9	Neutral	xxxxx	xxxxx	czerwony	red	hit	n/a
55.012	n/a	RESPONSE	n/a	n/a	n/a	n/a	n/a	n/a	n/a	red
55.0437	1.0167	ITI	n/a	n/a	n/a	n/a	n/a	n/a	n/a	n/a
56.0604	0.5167	FIXCROSS	n/a	n/a	n/a	n/a	n/a	n/a	n/a	n/a
56.5771	0.7	INK	10	Neutral	xxxxx	xxxxx	niebieski	blue	hit	n/a
57.2516	n/a	RESPONSE	n/a	n/a	n/a	n/a	n/a	n/a	n/a	blue
57.2771	1.0167	ITI	n/a	n/a	n/a	n/a	n/a	n/a	n/a	n/a
58.2938	0.5167	FIXCROSS	n/a	n/a	n/a	n/a	n/a	n/a	n/a	n/a
58.8104	0.7166	INK	11	Neutral	xxxxxxxx	xxxxxxxx	niebieski	blue	incorrect	n/a
59.5071	n/a	RESPONSE	n/a	n/a	n/a	n/a	n/a	n/a	n/a	yellow
59.5231	n/a	RESPONSE	n/a	n/a	n/a	n/a	n/a	n/a	n/a	blue
59.5271	1.0167	ITI	n/a	n/a	n/a	n/a	n/a	n/a	n/a	n/a
60.5438	0.5167	FIXCROSS	n/a	n/a	n/a	n/a	n/a	n/a	n/a	n/a
61.0605	0.7	INK	12	Incongruent	niebieski	blue	czerwony	red	hit	n/a
61.7306	n/a	RESPONSE	n/a	n/a	n/a	n/a	n/a	n/a	n/a	red
61.7605	1.0167	ITI	n/a	n/a	n/a	n/a	n/a	n/a	n/a	n/a
62.7772	0.5167	FIXCROSS	n/a	n/a	n/a	n/a	n/a	n/a	n/a	n/a
63.2938	0.6333	INK	13	Incongruent	czerwony	red	żółty	yellow	hit	n/a
63.9062	n/a	RESPONSE	n/a	n/a	n/a	n/a	n/a	n/a	n/a	yellow
63.9272	1.0167	ITI	n/a	n/a	n/a	n/a	n/a	n/a	n/a	n/a
64.9438	0.5167	FIXCROSS	n/a	n/a	n/a	n/a	n/a	n/a	n/a	n/a
65.4605	0.5667	INK	14	Neutral	xxxxxxxx	xxxxxxxx	żółty	yellow	hit	n/a
66.0017	n/a	RESPONSE	n/a	n/a	n/a	n/a	n/a	n/a	n/a	yellow
66.0272	1.0167	ITI	n/a	n/a	n/a	n/a	n/a	n/a	n/a	n/a
67.0439	0.5167	FIXCROSS	n/a	n/a	n/a	n/a	n/a	n/a	n/a	n/a
67.5605	0.4	INK	15	Incongruent	niebieski	blue	zielony	green	hit	n/a
67.9373	n/a	RESPONSE	n/a	n/a	n/a	n/a	n/a	n/a	n/a	green
67.9605	1.0167	ITI	n/a	n/a	n/a	n/a	n/a	n/a	n/a	n/a
68.9772	0.5167	FIXCROSS	n/a	n/a	n/a	n/a	n/a	n/a	n/a	n/a
69.4939	0.35	INK	16	Neutral	xxxxxxx	xxxxxxx	niebieski	blue	hit	n/a
69.8248	n/a	RESPONSE	n/a	n/a	n/a	n/a	n/a	n/a	n/a	blue
69.8439	1.0167	ITI	n/a	n/a	n/a	n/a	n/a	n/a	n/a	n/a
70.8606	0.5167	FIXCROSS	n/a	n/a	n/a	n/a	n/a	n/a	n/a	n/a
71.3772	0.4167	INK	17	Incongruent	żółty	yellow	czerwony	red	incorrect	n/a
71.7764	n/a	RESPONSE	n/a	n/a	n/a	n/a	n/a	n/a	n/a	blue
71.7939	1.0167	ITI	n/a	n/a	n/a	n/a	n/a	n/a	n/a	n/a
72.8106	0.5167	FIXCROSS	n/a	n/a	n/a	n/a	n/a	n/a	n/a	n/a
73.3273	0.5167	INK	18	Incongruent	czerwony	red	niebieski	blue	hit	n/a
73.824	n/a	RESPONSE	n/a	n/a	n/a	n/a	n/a	n/a	n/a	blue
73.8439	1.0167	ITI	n/a	n/a	n/a	n/a	n/a	n/a	n/a	n/a
74.8606	0.5167	FIXCROSS	n/a	n/a	n/a	n/a	n/a	n/a	n/a	n/a
75.3773	0.5333	INK	19	Neutral	xxxxx	xxxxx	niebieski	blue	hit	n/a
75.8875	n/a	RESPONSE	n/a	n/a	n/a	n/a	n/a	n/a	n/a	blue
75.9106	1.0167	ITI	n/a	n/a	n/a	n/a	n/a	n/a	n/a	n/a
76.9273	0.5167	FIXCROSS	n/a	n/a	n/a	n/a	n/a	n/a	n/a	n/a
77.444	0.4167	INK	20	Neutral	xxxxx	xxxxx	czerwony	red	hit	n/a
77.8391	n/a	RESPONSE	n/a	n/a	n/a	n/a	n/a	n/a	n/a	red
77.8607	1.0167	ITI	n/a	n/a	n/a	n/a	n/a	n/a	n/a	n/a
78.8773	0.5167	FIXCROSS	n/a	n/a	n/a	n/a	n/a	n/a	n/a	n/a
79.394	0.6833	INK	21	Neutral	xxxxxxxx	xxxxxxxx	żółty	yellow	hit	n/a
80.0467	n/a	RESPONSE	n/a	n/a	n/a	n/a	n/a	n/a	n/a	yellow
80.0773	1.0167	ITI	n/a	n/a	n/a	n/a	n/a	n/a	n/a	n/a
81.094	0.5167	FIXCROSS	n/a	n/a	n/a	n/a	n/a	n/a	n/a	n/a
81.6107	0.4833	INK	22	Incongruent	żółty	yellow	zielony	green	incorrect	n/a
82.0622	n/a	RESPONSE	n/a	n/a	n/a	n/a	n/a	n/a	n/a	blue
82.094	1.0167	ITI	n/a	n/a	n/a	n/a	n/a	n/a	n/a	n/a
83.1107	0.5167	FIXCROSS	n/a	n/a	n/a	n/a	n/a	n/a	n/a	n/a
83.6274	0.6167	INK	23	Incongruent	czerwony	red	niebieski	blue	incorrect	n/a
84.2218	n/a	RESPONSE	n/a	n/a	n/a	n/a	n/a	n/a	n/a	green
84.2441	1.0167	ITI	n/a	n/a	n/a	n/a	n/a	n/a	n/a	n/a
85.2607	0.5167	FIXCROSS	n/a	n/a	n/a	n/a	n/a	n/a	n/a	n/a
85.7774	0.5833	INK	24	Incongruent	zielony	green	niebieski	blue	hit	n/a
86.3333	n/a	RESPONSE	n/a	n/a	n/a	n/a	n/a	n/a	n/a	blue
86.3608	1.0167	ITI	n/a	n/a	n/a	n/a	n/a	n/a	n/a	n/a
87.3774	0.5167	FIXCROSS	n/a	n/a	n/a	n/a	n/a	n/a	n/a	n/a
87.8941	0.55	INK	25	Incongruent	zielony	green	czerwony	red	hit	n/a
88.4128	n/a	RESPONSE	n/a	n/a	n/a	n/a	n/a	n/a	n/a	red
88.4441	1.0167	ITI	n/a	n/a	n/a	n/a	n/a	n/a	n/a	n/a
89.4608	0.5167	FIXCROSS	n/a	n/a	n/a	n/a	n/a	n/a	n/a	n/a
89.9775	0.7333	INK	26	Incongruent	niebieski	blue	czerwony	red	hit	n/a
90.6844	n/a	RESPONSE	n/a	n/a	n/a	n/a	n/a	n/a	n/a	red
90.7108	1.0167	ITI	n/a	n/a	n/a	n/a	n/a	n/a	n/a	n/a
91.7275	0.5167	FIXCROSS	n/a	n/a	n/a	n/a	n/a	n/a	n/a	n/a
92.2442	0.7167	INK	27	Incongruent	czerwony	red	zielony	green	hit	n/a
92.9399	n/a	RESPONSE	n/a	n/a	n/a	n/a	n/a	n/a	n/a	green
92.9608	1.0167	ITI	n/a	n/a	n/a	n/a	n/a	n/a	n/a	n/a
93.9775	0.5167	FIXCROSS	n/a	n/a	n/a	n/a	n/a	n/a	n/a	n/a
94.4942	0.5833	INK	28	Neutral	xxxxxxx	xxxxxxx	czerwony	red	hit	n/a
95.0514	n/a	RESPONSE	n/a	n/a	n/a	n/a	n/a	n/a	n/a	red
95.0775	1.0167	ITI	n/a	n/a	n/a	n/a	n/a	n/a	n/a	n/a
96.0942	0.5167	FIXCROSS	n/a	n/a	n/a	n/a	n/a	n/a	n/a	n/a
96.6109	0.65	INK	29	Neutral	xxxxxxxxx	xxxxxxxxx	żółty	yellow	incorrect	n/a
97.227	n/a	RESPONSE	n/a	n/a	n/a	n/a	n/a	n/a	n/a	green
97.2609	1.0167	ITI	n/a	n/a	n/a	n/a	n/a	n/a	n/a	n/a
97.3069	n/a	RESPONSE	n/a	n/a	n/a	n/a	n/a	n/a	n/a	yellow
98.2775	0.5167	FIXCROSS	n/a	n/a	n/a	n/a	n/a	n/a	n/a	n/a
98.7942	0.5667	INK	30	Neutral	xxxxxxxxx	xxxxxxxxx	czerwony	red	hit	n/a
99.3385	n/a	RESPONSE	n/a	n/a	n/a	n/a	n/a	n/a	n/a	red
99.3609	1.0167	ITI	n/a	n/a	n/a	n/a	n/a	n/a	n/a	n/a
100.3776	0.5167	FIXCROSS	n/a	n/a	n/a	n/a	n/a	n/a	n/a	n/a
100.8942	0.6833	INK	31	Incongruent	żółty	yellow	czerwony	red	hit	n/a
101.546	n/a	RESPONSE	n/a	n/a	n/a	n/a	n/a	n/a	n/a	red
101.5776	1.0167	ITI	n/a	n/a	n/a	n/a	n/a	n/a	n/a	n/a
102.5943	0.5167	FIXCROSS	n/a	n/a	n/a	n/a	n/a	n/a	n/a	n/a
103.1109	0.65	INK	32	Neutral	xxxxxxx	xxxxxxx	żółty	yellow	hit	n/a
103.7375	n/a	RESPONSE	n/a	n/a	n/a	n/a	n/a	n/a	n/a	yellow
103.761	1.0167	ITI	n/a	n/a	n/a	n/a	n/a	n/a	n/a	n/a
104.7776	0.5167	FIXCROSS	n/a	n/a	n/a	n/a	n/a	n/a	n/a	n/a
105.2943	0.7	INK	33	Incongruent	żółty	yellow	niebieski	blue	hit	n/a
105.977	n/a	RESPONSE	n/a	n/a	n/a	n/a	n/a	n/a	n/a	blue
105.9943	1.0167	ITI	n/a	n/a	n/a	n/a	n/a	n/a	n/a	n/a
107.011	0.5167	FIXCROSS	n/a	n/a	n/a	n/a	n/a	n/a	n/a	n/a
107.5277	0.5667	INK	34	Incongruent	zielony	green	żółty	yellow	hit	n/a
108.0726	n/a	RESPONSE	n/a	n/a	n/a	n/a	n/a	n/a	n/a	yellow
108.0943	1.0167	ITI	n/a	n/a	n/a	n/a	n/a	n/a	n/a	n/a
109.111	0.5167	FIXCROSS	n/a	n/a	n/a	n/a	n/a	n/a	n/a	n/a
109.6277	0.6834	INK	35	Incongruent	niebieski	blue	zielony	green	incorrect	n/a
110.2801	n/a	RESPONSE	n/a	n/a	n/a	n/a	n/a	n/a	n/a	yellow
110.311	1.0167	ITI	n/a	n/a	n/a	n/a	n/a	n/a	n/a	n/a
110.3441	n/a	RESPONSE	n/a	n/a	n/a	n/a	n/a	n/a	n/a	green
111.3277	0.5167	FIXCROSS	n/a	n/a	n/a	n/a	n/a	n/a	n/a	n/a
111.8444	0.75	INK	36	Neutral	xxxxxxxx	xxxxxxxx	niebieski	blue	hit	n/a
112.5676	n/a	RESPONSE	n/a	n/a	n/a	n/a	n/a	n/a	n/a	blue
112.5944	1.0167	ITI	n/a	n/a	n/a	n/a	n/a	n/a	n/a	n/a
113.6111	0.5167	FIXCROSS	n/a	n/a	n/a	n/a	n/a	n/a	n/a	n/a
114.1277	0.5166	INK	37	Incongruent	zielony	green	czerwony	red	hit	n/a
114.6152	n/a	RESPONSE	n/a	n/a	n/a	n/a	n/a	n/a	n/a	red
114.6444	1.0167	ITI	n/a	n/a	n/a	n/a	n/a	n/a	n/a	n/a
115.6611	0.5167	FIXCROSS	n/a	n/a	n/a	n/a	n/a	n/a	n/a	n/a
116.1778	0.6333	INK	38	Neutral	xxxxx	xxxxx	niebieski	blue	hit	n/a
116.7908	n/a	RESPONSE	n/a	n/a	n/a	n/a	n/a	n/a	n/a	blue
116.8111	1.0167	ITI	n/a	n/a	n/a	n/a	n/a	n/a	n/a	n/a
117.8278	0.5167	FIXCROSS	n/a	n/a	n/a	n/a	n/a	n/a	n/a	n/a
118.3444	0.5	INK	39	Incongruent	czerwony	red	żółty	yellow	incorrect	n/a
118.8223	n/a	RESPONSE	n/a	n/a	n/a	n/a	n/a	n/a	n/a	green
118.8445	1.0167	ITI	n/a	n/a	n/a	n/a	n/a	n/a	n/a	n/a
118.9663	n/a	RESPONSE	n/a	n/a	n/a	n/a	n/a	n/a	n/a	yellow
119.8611	0.5167	FIXCROSS	n/a	n/a	n/a	n/a	n/a	n/a	n/a	n/a
120.3778	0.6667	INK	40	Neutral	xxxxxxxxx	xxxxxxxxx	zielony	green	incorrect	n/a
121.0138	n/a	RESPONSE	n/a	n/a	n/a	n/a	n/a	n/a	n/a	red
121.0445	1.0167	ITI	n/a	n/a	n/a	n/a	n/a	n/a	n/a	n/a
121.0938	n/a	RESPONSE	n/a	n/a	n/a	n/a	n/a	n/a	n/a	green
122.0612	0.5167	FIXCROSS	n/a	n/a	n/a	n/a	n/a	n/a	n/a	n/a
122.5778	0.5833	INK	41	Neutral	xxxxx	xxxxx	zielony	green	hit	n/a
123.1413	n/a	RESPONSE	n/a	n/a	n/a	n/a	n/a	n/a	n/a	green
123.1612	1.0167	ITI	n/a	n/a	n/a	n/a	n/a	n/a	n/a	n/a
124.1778	0.5167	FIXCROSS	n/a	n/a	n/a	n/a	n/a	n/a	n/a	n/a
124.6945	0.55	INK	42	Neutral	xxxxxxx	xxxxxxx	żółty	yellow	hit	n/a
125.2209	n/a	RESPONSE	n/a	n/a	n/a	n/a	n/a	n/a	n/a	yellow
125.2445	1.0167	ITI	n/a	n/a	n/a	n/a	n/a	n/a	n/a	n/a
126.2612	0.5167	FIXCROSS	n/a	n/a	n/a	n/a	n/a	n/a	n/a	n/a
126.7779	0.6167	INK	43	Incongruent	zielony	green	żółty	yellow	hit	n/a
127.3644	n/a	RESPONSE	n/a	n/a	n/a	n/a	n/a	n/a	n/a	yellow
127.3945	1.0167	ITI	n/a	n/a	n/a	n/a	n/a	n/a	n/a	n/a
128.4112	0.5167	FIXCROSS	n/a	n/a	n/a	n/a	n/a	n/a	n/a	n/a
128.9279	0.3833	INK	44	Incongruent	niebieski	blue	żółty	yellow	hit	n/a
129.284	n/a	RESPONSE	n/a	n/a	n/a	n/a	n/a	n/a	n/a	yellow
129.3112	1.0167	ITI	n/a	n/a	n/a	n/a	n/a	n/a	n/a	n/a
130.3279	0.5167	FIXCROSS	n/a	n/a	n/a	n/a	n/a	n/a	n/a	n/a
130.8446	0.6	INK	45	Incongruent	żółty	yellow	zielony	green	hit	n/a
131.4115	n/a	RESPONSE	n/a	n/a	n/a	n/a	n/a	n/a	n/a	green
131.4446	1.0167	ITI	n/a	n/a	n/a	n/a	n/a	n/a	n/a	n/a
132.4613	0.5167	FIXCROSS	n/a	n/a	n/a	n/a	n/a	n/a	n/a	n/a
132.9779	0.4167	INK	46	Neutral	xxxxxxxxx	xxxxxxxxx	żółty	yellow	hit	n/a
133.3631	n/a	RESPONSE	n/a	n/a	n/a	n/a	n/a	n/a	n/a	yellow
133.3946	1.0167	ITI	n/a	n/a	n/a	n/a	n/a	n/a	n/a	n/a
134.4113	0.5167	FIXCROSS	n/a	n/a	n/a	n/a	n/a	n/a	n/a	n/a
134.928	0.65	INK	47	Incongruent	czerwony	red	zielony	green	hit	n/a
135.5547	n/a	RESPONSE	n/a	n/a	n/a	n/a	n/a	n/a	n/a	green
135.578	1.0167	ITI	n/a	n/a	n/a	n/a	n/a	n/a	n/a	n/a
136.5946	0.5167	FIXCROSS	n/a	n/a	n/a	n/a	n/a	n/a	n/a	n/a
137.1113	0.6	INK	48	Neutral	xxxxxxxxx	xxxxxxxxx	czerwony	red	incorrect	n/a
137.6822	n/a	RESPONSE	n/a	n/a	n/a	n/a	n/a	n/a	n/a	blue
137.7113	1.0167	ITI	n/a	n/a	n/a	n/a	n/a	n/a	n/a	n/a
137.8102	n/a	RESPONSE	n/a	n/a	n/a	n/a	n/a	n/a	n/a	red
138.728	0.5167	FIXCROSS	n/a	n/a	n/a	n/a	n/a	n/a	n/a	n/a
139.2447	0.4833	INK	49	Neutral	xxxxxxxxx	xxxxxxxxx	zielony	green	incorrect	n/a
139.6977	n/a	RESPONSE	n/a	n/a	n/a	n/a	n/a	n/a	n/a	yellow
139.728	1.0167	ITI	n/a	n/a	n/a	n/a	n/a	n/a	n/a	n/a
140.7447	0.5167	FIXCROSS	n/a	n/a	n/a	n/a	n/a	n/a	n/a	n/a
141.2614	0.7	INK	50	Incongruent	czerwony	red	niebieski	blue	hit	n/a
141.9373	n/a	RESPONSE	n/a	n/a	n/a	n/a	n/a	n/a	n/a	blue
141.9614	1.0167	ITI	n/a	n/a	n/a	n/a	n/a	n/a	n/a	n/a
142.9781	0.5166	FIXCROSS	n/a	n/a	n/a	n/a	n/a	n/a	n/a	n/a
143.4946	0.6668	INK	51	Neutral	xxxxxxx	xxxxxxx	czerwony	red	hit	n/a
144.1288	n/a	RESPONSE	n/a	n/a	n/a	n/a	n/a	n/a	n/a	red
144.1614	1.0167	ITI	n/a	n/a	n/a	n/a	n/a	n/a	n/a	n/a
145.1781	0.5167	FIXCROSS	n/a	n/a	n/a	n/a	n/a	n/a	n/a	n/a
145.6948	0.6167	INK	52	Incongruent	niebieski	blue	zielony	green	hit	n/a
146.2883	n/a	RESPONSE	n/a	n/a	n/a	n/a	n/a	n/a	n/a	green
146.3114	1.0167	ITI	n/a	n/a	n/a	n/a	n/a	n/a	n/a	n/a
147.3281	0.5167	FIXCROSS	n/a	n/a	n/a	n/a	n/a	n/a	n/a	n/a
147.8448	0.5667	INK	53	Incongruent	czerwony	red	zielony	green	hit	n/a
148.3839	n/a	RESPONSE	n/a	n/a	n/a	n/a	n/a	n/a	n/a	green
148.4115	1.0167	ITI	n/a	n/a	n/a	n/a	n/a	n/a	n/a	n/a
149.4281	0.5167	FIXCROSS	n/a	n/a	n/a	n/a	n/a	n/a	n/a	n/a
149.9448	0.5333	INK	54	Neutral	xxxxxxx	xxxxxxx	żółty	yellow	hit	n/a
150.4475	n/a	RESPONSE	n/a	n/a	n/a	n/a	n/a	n/a	n/a	yellow
150.4781	1.0167	ITI	n/a	n/a	n/a	n/a	n/a	n/a	n/a	n/a
151.4948	0.5167	FIXCROSS	n/a	n/a	n/a	n/a	n/a	n/a	n/a	n/a
152.0115	0.5333	INK	55	Neutral	xxxxxxxx	xxxxxxxx	żółty	yellow	hit	n/a
152.527	n/a	RESPONSE	n/a	n/a	n/a	n/a	n/a	n/a	n/a	yellow
152.5448	1.0167	ITI	n/a	n/a	n/a	n/a	n/a	n/a	n/a	n/a
153.5615	0.5167	FIXCROSS	n/a	n/a	n/a	n/a	n/a	n/a	n/a	n/a
154.0782	0.5667	INK	56	Incongruent	zielony	green	niebieski	blue	hit	n/a
154.6226	n/a	RESPONSE	n/a	n/a	n/a	n/a	n/a	n/a	n/a	blue
154.6449	1.0167	ITI	n/a	n/a	n/a	n/a	n/a	n/a	n/a	n/a
155.6615	0.5167	FIXCROSS	n/a	n/a	n/a	n/a	n/a	n/a	n/a	n/a
156.1782	0.6	INK	57	Incongruent	żółty	yellow	niebieski	blue	incorrect	n/a
156.7501	n/a	RESPONSE	n/a	n/a	n/a	n/a	n/a	n/a	n/a	green
156.7782	1.0167	ITI	n/a	n/a	n/a	n/a	n/a	n/a	n/a	n/a
157.7949	0.5167	FIXCROSS	n/a	n/a	n/a	n/a	n/a	n/a	n/a	n/a
158.3116	0.55	INK	58	Incongruent	niebieski	blue	czerwony	red	incorrect	n/a
158.8296	n/a	RESPONSE	n/a	n/a	n/a	n/a	n/a	n/a	n/a	yellow
158.8616	1.0167	ITI	n/a	n/a	n/a	n/a	n/a	n/a	n/a	n/a
159.1176	n/a	RESPONSE	n/a	n/a	n/a	n/a	n/a	n/a	n/a	red
159.8782	0.5167	FIXCROSS	n/a	n/a	n/a	n/a	n/a	n/a	n/a	n/a
160.3949	0.6667	INK	59	Incongruent	zielony	green	niebieski	blue	incorrect	n/a
161.0372	n/a	RESPONSE	n/a	n/a	n/a	n/a	n/a	n/a	n/a	green
161.0616	1.0167	ITI	n/a	n/a	n/a	n/a	n/a	n/a	n/a	n/a
161.1491	n/a	RESPONSE	n/a	n/a	n/a	n/a	n/a	n/a	n/a	blue
162.0783	0.5167	FIXCROSS	n/a	n/a	n/a	n/a	n/a	n/a	n/a	n/a
162.5949	0.6	INK	60	Incongruent	żółty	yellow	niebieski	blue	hit	n/a
163.1647	n/a	RESPONSE	n/a	n/a	n/a	n/a	n/a	n/a	n/a	blue
163.195	1.0167	ITI	n/a	n/a	n/a	n/a	n/a	n/a	n/a	n/a
164.2116	0.5167	FIXCROSS	n/a	n/a	n/a	n/a	n/a	n/a	n/a	n/a
164.7283	0.5833	INK	61	Incongruent	czerwony	red	żółty	yellow	hit	n/a
165.2923	n/a	RESPONSE	n/a	n/a	n/a	n/a	n/a	n/a	n/a	yellow
165.3117	1.0167	ITI	n/a	n/a	n/a	n/a	n/a	n/a	n/a	n/a
166.3283	0.5167	FIXCROSS	n/a	n/a	n/a	n/a	n/a	n/a	n/a	n/a
166.845	0.65	INK	62	Neutral	xxxxxxxxx	xxxxxxxxx	żółty	yellow	hit	n/a
167.4678	n/a	RESPONSE	n/a	n/a	n/a	n/a	n/a	n/a	n/a	yellow
167.495	1.0167	ITI	n/a	n/a	n/a	n/a	n/a	n/a	n/a	n/a
168.5117	0.5167	FIXCROSS	n/a	n/a	n/a	n/a	n/a	n/a	n/a	n/a
169.0284	0.6333	INK	63	Incongruent	żółty	yellow	zielony	green	hit	n/a
169.6433	n/a	RESPONSE	n/a	n/a	n/a	n/a	n/a	n/a	n/a	green
169.6617	1.0167	ITI	n/a	n/a	n/a	n/a	n/a	n/a	n/a	n/a
170.6784	0.5167	FIXCROSS	n/a	n/a	n/a	n/a	n/a	n/a	n/a	n/a
171.195	0.6333	INK	64	Incongruent	zielony	green	żółty	yellow	hit	n/a
171.8028	n/a	RESPONSE	n/a	n/a	n/a	n/a	n/a	n/a	n/a	yellow
171.8284	1.0167	ITI	n/a	n/a	n/a	n/a	n/a	n/a	n/a	n/a
172.8451	0.5167	FIXCROSS	n/a	n/a	n/a	n/a	n/a	n/a	n/a	n/a
173.3617	0.65	INK	65	Incongruent	niebieski	blue	żółty	yellow	hit	n/a
173.9784	n/a	RESPONSE	n/a	n/a	n/a	n/a	n/a	n/a	n/a	yellow
174.0118	1.0167	ITI	n/a	n/a	n/a	n/a	n/a	n/a	n/a	n/a
175.0284	0.5167	FIXCROSS	n/a	n/a	n/a	n/a	n/a	n/a	n/a	n/a
175.5451	0.5333	INK	66	Incongruent	niebieski	blue	żółty	yellow	incorrect	n/a
176.0579	n/a	RESPONSE	n/a	n/a	n/a	n/a	n/a	n/a	n/a	blue
176.0784	1.0167	ITI	n/a	n/a	n/a	n/a	n/a	n/a	n/a	n/a
177.0951	0.5167	FIXCROSS	n/a	n/a	n/a	n/a	n/a	n/a	n/a	n/a
177.6118	0.6	INK	67	Neutral	xxxxxxx	xxxxxxx	niebieski	blue	hit	n/a
178.1854	n/a	RESPONSE	n/a	n/a	n/a	n/a	n/a	n/a	n/a	blue
178.2118	1.0167	ITI	n/a	n/a	n/a	n/a	n/a	n/a	n/a	n/a
179.2285	0.5167	FIXCROSS	n/a	n/a	n/a	n/a	n/a	n/a	n/a	n/a
179.7451	0.6333	INK	68	Neutral	xxxxxxxx	xxxxxxxx	zielony	green	hit	n/a
180.345	n/a	RESPONSE	n/a	n/a	n/a	n/a	n/a	n/a	n/a	green
180.3785	1.0167	ITI	n/a	n/a	n/a	n/a	n/a	n/a	n/a	n/a
181.3952	0.5167	FIXCROSS	n/a	n/a	n/a	n/a	n/a	n/a	n/a	n/a
181.9118	0.65	INK	69	Neutral	xxxxxxxx	xxxxxxxx	niebieski	blue	hit	n/a
182.5365	n/a	RESPONSE	n/a	n/a	n/a	n/a	n/a	n/a	n/a	blue
182.5618	1.0167	ITI	n/a	n/a	n/a	n/a	n/a	n/a	n/a	n/a
183.5785	0.5167	FIXCROSS	n/a	n/a	n/a	n/a	n/a	n/a	n/a	n/a
184.0952	0.5333	INK	70	Neutral	xxxxx	xxxxx	zielony	green	incorrect	n/a
184.6	n/a	RESPONSE	n/a	n/a	n/a	n/a	n/a	n/a	n/a	yellow
184.6285	1.0167	ITI	n/a	n/a	n/a	n/a	n/a	n/a	n/a	n/a
185.6452	0.5167	FIXCROSS	n/a	n/a	n/a	n/a	n/a	n/a	n/a	n/a
186.1619	0.5667	INK	71	Incongruent	zielony	green	czerwony	red	hit	n/a
186.6956	n/a	RESPONSE	n/a	n/a	n/a	n/a	n/a	n/a	n/a	red
186.7286	1.0167	ITI	n/a	n/a	n/a	n/a	n/a	n/a	n/a	n/a
187.7452	0.5167	FIXCROSS	n/a	n/a	n/a	n/a	n/a	n/a	n/a	n/a
188.2619	0.4167	INK	72	Neutral	xxxxxxx	xxxxxxx	czerwony	red	hit	n/a
188.6472	n/a	RESPONSE	n/a	n/a	n/a	n/a	n/a	n/a	n/a	red
188.6786	1.0833	ITI	n/a	n/a	n/a	n/a	n/a	n/a	n/a	n/a
206.8992	n/a	RESPONSE	n/a	n/a	n/a	n/a	n/a	n/a	n/a	n/a
206.9621	1.0167	ITI	n/a	n/a	n/a	n/a	n/a	n/a	n/a	n/a
207.9788	0.5167	FIXCROSS	n/a	n/a	n/a	n/a	n/a	n/a	n/a	n/a
208.4955	0.8833	T_COLOR_NAME	1	Neutral	zielony	green	Neutral	Neutral	hit	n/a
209.3467	n/a	RESPONSE	n/a	n/a	n/a	n/a	n/a	n/a	n/a	green
209.3788	0.5167	FEEDBACK	n/a	n/a	n/a	n/a	n/a	n/a	n/a	n/a
209.8955	1.0167	ITI	n/a	n/a	n/a	n/a	n/a	n/a	n/a	n/a
210.9122	0.5167	FIXCROSS	n/a	n/a	n/a	n/a	n/a	n/a	n/a	n/a
211.4288	0.9333	T_COLOR_NAME	2	Incongruent	zielony	green	niebieski	blue	incorrect	n/a
212.3381	n/a	RESPONSE	n/a	n/a	n/a	n/a	n/a	n/a	n/a	blue
212.3622	0.5167	FEEDBACK	n/a	n/a	n/a	n/a	n/a	n/a	n/a	n/a
212.8789	1.0167	ITI	n/a	n/a	n/a	n/a	n/a	n/a	n/a	n/a
213.8955	0.5167	FIXCROSS	n/a	n/a	n/a	n/a	n/a	n/a	n/a	n/a
214.4122	0.6	T_COLOR_NAME	3	Neutral	zielony	green	Neutral	Neutral	hit	n/a
214.9775	n/a	RESPONSE	n/a	n/a	n/a	n/a	n/a	n/a	n/a	green
215.0122	0.5167	FEEDBACK	n/a	n/a	n/a	n/a	n/a	n/a	n/a	n/a
215.5289	1.0167	ITI	n/a	n/a	n/a	n/a	n/a	n/a	n/a	n/a
216.5456	0.5167	FIXCROSS	n/a	n/a	n/a	n/a	n/a	n/a	n/a	n/a
217.0622	0.6333	T_COLOR_NAME	4	Neutral	zielony	green	Neutral	Neutral	hit	n/a
217.6649	n/a	RESPONSE	n/a	n/a	n/a	n/a	n/a	n/a	n/a	green
217.6956	0.5167	FEEDBACK	n/a	n/a	n/a	n/a	n/a	n/a	n/a	n/a
218.2122	1.0167	ITI	n/a	n/a	n/a	n/a	n/a	n/a	n/a	n/a
219.2289	0.5167	FIXCROSS	n/a	n/a	n/a	n/a	n/a	n/a	n/a	n/a
219.7456	0.7167	T_COLOR_NAME	5	Neutral	niebieski	blue	Neutral	Neutral	hit	n/a
220.4323	n/a	RESPONSE	n/a	n/a	n/a	n/a	n/a	n/a	n/a	blue
220.4623	0.5167	FEEDBACK	n/a	n/a	n/a	n/a	n/a	n/a	n/a	n/a
220.9789	1.0167	ITI	n/a	n/a	n/a	n/a	n/a	n/a	n/a	n/a
221.9956	0.5167	FIXCROSS	n/a	n/a	n/a	n/a	n/a	n/a	n/a	n/a
222.5123	1.0167	T_COLOR_NAME	6	Incongruent	żółty	yellow	czerwony	red	hit	n/a
223.5037	n/a	RESPONSE	n/a	n/a	n/a	n/a	n/a	n/a	n/a	yellow
223.529	0.5167	FEEDBACK	n/a	n/a	n/a	n/a	n/a	n/a	n/a	n/a
224.0456	1.0167	ITI	n/a	n/a	n/a	n/a	n/a	n/a	n/a	n/a
225.0623	0.5167	FIXCROSS	n/a	n/a	n/a	n/a	n/a	n/a	n/a	n/a
225.579	0.7167	T_COLOR_NAME	7	Incongruent	czerwony	red	żółty	yellow	hit	n/a
226.271	n/a	RESPONSE	n/a	n/a	n/a	n/a	n/a	n/a	n/a	red
226.2957	0.5167	FEEDBACK	n/a	n/a	n/a	n/a	n/a	n/a	n/a	n/a
226.8123	1.0167	ITI	n/a	n/a	n/a	n/a	n/a	n/a	n/a	n/a
227.829	0.5167	FIXCROSS	n/a	n/a	n/a	n/a	n/a	n/a	n/a	n/a
228.3457	0.5333	T_COLOR_NAME	8	Neutral	czerwony	red	Neutral	Neutral	hit	n/a
228.8465	n/a	RESPONSE	n/a	n/a	n/a	n/a	n/a	n/a	n/a	red
228.879	0.5167	FEEDBACK	n/a	n/a	n/a	n/a	n/a	n/a	n/a	n/a
229.3957	1.0167	ITI	n/a	n/a	n/a	n/a	n/a	n/a	n/a	n/a
230.4124	0.5167	FIXCROSS	n/a	n/a	n/a	n/a	n/a	n/a	n/a	n/a
230.929	0.5167	T_COLOR_NAME	9	Neutral	czerwony	red	Neutral	Neutral	hit	n/a
231.4219	n/a	RESPONSE	n/a	n/a	n/a	n/a	n/a	n/a	n/a	red
231.4457	0.5167	FEEDBACK	n/a	n/a	n/a	n/a	n/a	n/a	n/a	n/a
231.9624	1.0167	ITI	n/a	n/a	n/a	n/a	n/a	n/a	n/a	n/a
232.9791	0.5167	FIXCROSS	n/a	n/a	n/a	n/a	n/a	n/a	n/a	n/a
233.4957	1.3333	T_COLOR_NAME	10	Incongruent	żółty	yellow	niebieski	blue	hit	n/a
234.7972	n/a	RESPONSE	n/a	n/a	n/a	n/a	n/a	n/a	n/a	yellow
234.8291	0.5167	FEEDBACK	n/a	n/a	n/a	n/a	n/a	n/a	n/a	n/a
235.3458	1.0167	ITI	n/a	n/a	n/a	n/a	n/a	n/a	n/a	n/a
236.3625	0.5167	FIXCROSS	n/a	n/a	n/a	n/a	n/a	n/a	n/a	n/a
236.8791	0.6834	T_COLOR_NAME	11	Incongruent	żółty	yellow	zielony	green	hit	n/a
237.5326	n/a	RESPONSE	n/a	n/a	n/a	n/a	n/a	n/a	n/a	yellow
237.5625	0.5167	FEEDBACK	n/a	n/a	n/a	n/a	n/a	n/a	n/a	n/a
238.0791	1.0167	ITI	n/a	n/a	n/a	n/a	n/a	n/a	n/a	n/a
239.0958	0.5167	FIXCROSS	n/a	n/a	n/a	n/a	n/a	n/a	n/a	n/a
239.6125	0.6333	T_COLOR_NAME	12	Incongruent	czerwony	red	zielony	green	hit	n/a
240.22	n/a	RESPONSE	n/a	n/a	n/a	n/a	n/a	n/a	n/a	red
240.2458	0.5167	FEEDBACK	n/a	n/a	n/a	n/a	n/a	n/a	n/a	n/a
240.7625	1.0334	ITI	n/a	n/a	n/a	n/a	n/a	n/a	n/a	n/a
245.083	n/a	RESPONSE	n/a	n/a	n/a	n/a	n/a	n/a	n/a	n/a
245.1459	1.0167	ITI	n/a	n/a	n/a	n/a	n/a	n/a	n/a	n/a
246.1626	0.5167	FIXCROSS	n/a	n/a	n/a	n/a	n/a	n/a	n/a	n/a
246.6792	0.7167	COLOR_NAME	1	Incongruent	czerwony	red	zielony	green	hit	n/a
247.3705	n/a	RESPONSE	n/a	n/a	n/a	n/a	n/a	n/a	n/a	red
247.3959	1.0167	ITI	n/a	n/a	n/a	n/a	n/a	n/a	n/a	n/a
248.4126	0.5167	FIXCROSS	n/a	n/a	n/a	n/a	n/a	n/a	n/a	n/a
248.9293	0.6667	COLOR_NAME	2	Neutral	niebieski	blue	Neutral	Neutral	hit	n/a
249.562	n/a	RESPONSE	n/a	n/a	n/a	n/a	n/a	n/a	n/a	blue
249.5959	1.0167	ITI	n/a	n/a	n/a	n/a	n/a	n/a	n/a	n/a
250.6126	0.5167	FIXCROSS	n/a	n/a	n/a	n/a	n/a	n/a	n/a	n/a
251.1293	0.5667	COLOR_NAME	3	Neutral	żółty	yellow	Neutral	Neutral	hit	n/a
251.6735	n/a	RESPONSE	n/a	n/a	n/a	n/a	n/a	n/a	n/a	yellow
251.6959	1.0167	ITI	n/a	n/a	n/a	n/a	n/a	n/a	n/a	n/a
252.7126	0.5167	FIXCROSS	n/a	n/a	n/a	n/a	n/a	n/a	n/a	n/a
253.2293	0.6333	COLOR_NAME	4	Incongruent	czerwony	red	żółty	yellow	hit	n/a
253.8331	n/a	RESPONSE	n/a	n/a	n/a	n/a	n/a	n/a	n/a	red
253.8627	1.0167	ITI	n/a	n/a	n/a	n/a	n/a	n/a	n/a	n/a
254.8793	0.5167	FIXCROSS	n/a	n/a	n/a	n/a	n/a	n/a	n/a	n/a
255.396	0.7333	COLOR_NAME	5	Incongruent	niebieski	blue	czerwony	red	hit	n/a
256.1046	n/a	RESPONSE	n/a	n/a	n/a	n/a	n/a	n/a	n/a	blue
256.1293	1.0167	ITI	n/a	n/a	n/a	n/a	n/a	n/a	n/a	n/a
257.146	0.5167	FIXCROSS	n/a	n/a	n/a	n/a	n/a	n/a	n/a	n/a
257.6627	0.5833	COLOR_NAME	6	Neutral	zielony	green	Neutral	Neutral	hit	n/a
258.2161	n/a	RESPONSE	n/a	n/a	n/a	n/a	n/a	n/a	n/a	green
258.246	1.0167	ITI	n/a	n/a	n/a	n/a	n/a	n/a	n/a	n/a
259.2627	0.5167	FIXCROSS	n/a	n/a	n/a	n/a	n/a	n/a	n/a	n/a
259.7794	0.55	COLOR_NAME	7	Incongruent	czerwony	red	niebieski	blue	hit	n/a
260.3117	n/a	RESPONSE	n/a	n/a	n/a	n/a	n/a	n/a	n/a	red
260.3294	1.0167	ITI	n/a	n/a	n/a	n/a	n/a	n/a	n/a	n/a
261.3461	0.5167	FIXCROSS	n/a	n/a	n/a	n/a	n/a	n/a	n/a	n/a
261.8627	0.55	COLOR_NAME	8	Neutral	zielony	green	Neutral	Neutral	incorrect	n/a
262.3912	n/a	RESPONSE	n/a	n/a	n/a	n/a	n/a	n/a	n/a	yellow
262.4127	1.0167	ITI	n/a	n/a	n/a	n/a	n/a	n/a	n/a	n/a
263.4294	0.5167	FIXCROSS	n/a	n/a	n/a	n/a	n/a	n/a	n/a	n/a
263.9461	0.75	COLOR_NAME	9	Incongruent	niebieski	blue	zielony	green	hit	n/a
264.6787	n/a	RESPONSE	n/a	n/a	n/a	n/a	n/a	n/a	n/a	blue
264.6961	1.0167	ITI	n/a	n/a	n/a	n/a	n/a	n/a	n/a	n/a
265.7128	0.5167	FIXCROSS	n/a	n/a	n/a	n/a	n/a	n/a	n/a	n/a
266.2294	0.55	COLOR_NAME	10	Incongruent	zielony	green	żółty	yellow	incorrect	n/a
266.7583	n/a	RESPONSE	n/a	n/a	n/a	n/a	n/a	n/a	n/a	blue
266.7795	1.0167	ITI	n/a	n/a	n/a	n/a	n/a	n/a	n/a	n/a
267.7961	0.5167	FIXCROSS	n/a	n/a	n/a	n/a	n/a	n/a	n/a	n/a
268.3128	0.6167	COLOR_NAME	11	Neutral	zielony	green	Neutral	Neutral	hit	n/a
268.9018	n/a	RESPONSE	n/a	n/a	n/a	n/a	n/a	n/a	n/a	green
268.9295	1.0167	ITI	n/a	n/a	n/a	n/a	n/a	n/a	n/a	n/a
269.9462	0.5167	FIXCROSS	n/a	n/a	n/a	n/a	n/a	n/a	n/a	n/a
270.4628	0.5333	COLOR_NAME	12	Neutral	czerwony	red	Neutral	Neutral	hit	n/a
270.9654	n/a	RESPONSE	n/a	n/a	n/a	n/a	n/a	n/a	n/a	red
270.9962	1.0167	ITI	n/a	n/a	n/a	n/a	n/a	n/a	n/a	n/a
272.0128	0.5167	FIXCROSS	n/a	n/a	n/a	n/a	n/a	n/a	n/a	n/a
272.5295	0.5	COLOR_NAME	13	Incongruent	czerwony	red	zielony	green	hit	n/a
272.9969	n/a	RESPONSE	n/a	n/a	n/a	n/a	n/a	n/a	n/a	red
273.0295	1.0167	ITI	n/a	n/a	n/a	n/a	n/a	n/a	n/a	n/a
274.0462	0.5167	FIXCROSS	n/a	n/a	n/a	n/a	n/a	n/a	n/a	n/a
274.5629	0.9334	COLOR_NAME	14	Incongruent	zielony	green	niebieski	blue	hit	n/a
275.4764	n/a	RESPONSE	n/a	n/a	n/a	n/a	n/a	n/a	n/a	green
275.4962	1.0167	ITI	n/a	n/a	n/a	n/a	n/a	n/a	n/a	n/a
276.5129	0.5167	FIXCROSS	n/a	n/a	n/a	n/a	n/a	n/a	n/a	n/a
277.0296	0.4667	COLOR_NAME	15	Incongruent	czerwony	red	żółty	yellow	hit	n/a
277.4759	n/a	RESPONSE	n/a	n/a	n/a	n/a	n/a	n/a	n/a	red
277.4962	1.0167	ITI	n/a	n/a	n/a	n/a	n/a	n/a	n/a	n/a
278.5129	0.5167	FIXCROSS	n/a	n/a	n/a	n/a	n/a	n/a	n/a	n/a
279.0296	0.6167	COLOR_NAME	16	Neutral	żółty	yellow	Neutral	Neutral	hit	n/a
279.6195	n/a	RESPONSE	n/a	n/a	n/a	n/a	n/a	n/a	n/a	yellow
279.6463	1.0167	ITI	n/a	n/a	n/a	n/a	n/a	n/a	n/a	n/a
280.6629	0.5167	FIXCROSS	n/a	n/a	n/a	n/a	n/a	n/a	n/a	n/a
281.1796	0.65	COLOR_NAME	17	Incongruent	czerwony	red	niebieski	blue	hit	n/a
281.811	n/a	RESPONSE	n/a	n/a	n/a	n/a	n/a	n/a	n/a	red
281.8296	1.0167	ITI	n/a	n/a	n/a	n/a	n/a	n/a	n/a	n/a
282.8463	0.5167	FIXCROSS	n/a	n/a	n/a	n/a	n/a	n/a	n/a	n/a
283.363	0.5333	COLOR_NAME	18	Neutral	niebieski	blue	Neutral	Neutral	hit	n/a
283.8746	n/a	RESPONSE	n/a	n/a	n/a	n/a	n/a	n/a	n/a	blue
283.8963	1.0167	ITI	n/a	n/a	n/a	n/a	n/a	n/a	n/a	n/a
284.913	0.5167	FIXCROSS	n/a	n/a	n/a	n/a	n/a	n/a	n/a	n/a
285.4297	0.6	COLOR_NAME	19	Neutral	czerwony	red	Neutral	Neutral	hit	n/a
286.0021	n/a	RESPONSE	n/a	n/a	n/a	n/a	n/a	n/a	n/a	red
286.0297	1.0167	ITI	n/a	n/a	n/a	n/a	n/a	n/a	n/a	n/a
287.0463	0.5167	FIXCROSS	n/a	n/a	n/a	n/a	n/a	n/a	n/a	n/a
287.563	0.4833	COLOR_NAME	20	Incongruent	żółty	yellow	niebieski	blue	hit	n/a
288.0177	n/a	RESPONSE	n/a	n/a	n/a	n/a	n/a	n/a	n/a	yellow
288.0464	1.0167	ITI	n/a	n/a	n/a	n/a	n/a	n/a	n/a	n/a
289.063	0.5167	FIXCROSS	n/a	n/a	n/a	n/a	n/a	n/a	n/a	n/a
289.5797	0.6834	COLOR_NAME	21	Incongruent	niebieski	blue	żółty	yellow	hit	n/a
290.2412	n/a	RESPONSE	n/a	n/a	n/a	n/a	n/a	n/a	n/a	blue
290.2631	1.0167	ITI	n/a	n/a	n/a	n/a	n/a	n/a	n/a	n/a
291.2797	0.5167	FIXCROSS	n/a	n/a	n/a	n/a	n/a	n/a	n/a	n/a
291.7964	0.5833	COLOR_NAME	22	Neutral	niebieski	blue	Neutral	Neutral	hit	n/a
292.3527	n/a	RESPONSE	n/a	n/a	n/a	n/a	n/a	n/a	n/a	blue
292.3798	1.0167	ITI	n/a	n/a	n/a	n/a	n/a	n/a	n/a	n/a
293.3964	0.5167	FIXCROSS	n/a	n/a	n/a	n/a	n/a	n/a	n/a	n/a
293.9131	0.6167	COLOR_NAME	23	Incongruent	żółty	yellow	czerwony	red	hit	n/a
294.4963	n/a	RESPONSE	n/a	n/a	n/a	n/a	n/a	n/a	n/a	yellow
294.5298	1.0167	ITI	n/a	n/a	n/a	n/a	n/a	n/a	n/a	n/a
295.5465	0.5167	FIXCROSS	n/a	n/a	n/a	n/a	n/a	n/a	n/a	n/a
296.0631	0.6167	COLOR_NAME	24	Neutral	czerwony	red	Neutral	Neutral	hit	n/a
296.6558	n/a	RESPONSE	n/a	n/a	n/a	n/a	n/a	n/a	n/a	red
296.6798	1.0167	ITI	n/a	n/a	n/a	n/a	n/a	n/a	n/a	n/a
297.6965	0.5167	FIXCROSS	n/a	n/a	n/a	n/a	n/a	n/a	n/a	n/a
298.2131	0.5333	COLOR_NAME	25	Neutral	niebieski	blue	Neutral	Neutral	hit	n/a
298.7194	n/a	RESPONSE	n/a	n/a	n/a	n/a	n/a	n/a	n/a	blue
298.7465	1.0167	ITI	n/a	n/a	n/a	n/a	n/a	n/a	n/a	n/a
299.7632	0.5167	FIXCROSS	n/a	n/a	n/a	n/a	n/a	n/a	n/a	n/a
300.2798	0.5	COLOR_NAME	26	Neutral	niebieski	blue	Neutral	Neutral	hit	n/a
300.7509	n/a	RESPONSE	n/a	n/a	n/a	n/a	n/a	n/a	n/a	blue
300.7798	1.0167	ITI	n/a	n/a	n/a	n/a	n/a	n/a	n/a	n/a
301.7965	0.5167	FIXCROSS	n/a	n/a	n/a	n/a	n/a	n/a	n/a	n/a
302.3132	0.5833	COLOR_NAME	27	Incongruent	żółty	yellow	czerwony	red	hit	n/a
302.8785	n/a	RESPONSE	n/a	n/a	n/a	n/a	n/a	n/a	n/a	yellow
302.8965	1.0167	ITI	n/a	n/a	n/a	n/a	n/a	n/a	n/a	n/a
303.9132	0.5167	FIXCROSS	n/a	n/a	n/a	n/a	n/a	n/a	n/a	n/a
304.4299	0.6	COLOR_NAME	28	Neutral	zielony	green	Neutral	Neutral	incorrect	n/a
305.006	n/a	RESPONSE	n/a	n/a	n/a	n/a	n/a	n/a	n/a	yellow
305.0299	1.0167	ITI	n/a	n/a	n/a	n/a	n/a	n/a	n/a	n/a
305.2459	n/a	RESPONSE	n/a	n/a	n/a	n/a	n/a	n/a	n/a	green
306.0466	0.5167	FIXCROSS	n/a	n/a	n/a	n/a	n/a	n/a	n/a	n/a
306.5632	0.55	COLOR_NAME	29	Neutral	czerwony	red	Neutral	Neutral	hit	n/a
307.0855	n/a	RESPONSE	n/a	n/a	n/a	n/a	n/a	n/a	n/a	red
307.1132	1.0167	ITI	n/a	n/a	n/a	n/a	n/a	n/a	n/a	n/a
308.1299	0.5167	FIXCROSS	n/a	n/a	n/a	n/a	n/a	n/a	n/a	n/a
308.6466	0.6333	COLOR_NAME	30	Incongruent	niebieski	blue	zielony	green	hit	n/a
309.2611	n/a	RESPONSE	n/a	n/a	n/a	n/a	n/a	n/a	n/a	blue
309.2799	1.0167	ITI	n/a	n/a	n/a	n/a	n/a	n/a	n/a	n/a
310.2966	0.5167	FIXCROSS	n/a	n/a	n/a	n/a	n/a	n/a	n/a	n/a
310.8133	0.5167	COLOR_NAME	31	Neutral	czerwony	red	Neutral	Neutral	hit	n/a
311.3086	n/a	RESPONSE	n/a	n/a	n/a	n/a	n/a	n/a	n/a	red
311.33	1.0167	ITI	n/a	n/a	n/a	n/a	n/a	n/a	n/a	n/a
312.3466	0.5167	FIXCROSS	n/a	n/a	n/a	n/a	n/a	n/a	n/a	n/a
312.8633	0.5333	COLOR_NAME	32	Incongruent	zielony	green	czerwony	red	hit	n/a
313.3722	n/a	RESPONSE	n/a	n/a	n/a	n/a	n/a	n/a	n/a	green
313.3967	1.0167	ITI	n/a	n/a	n/a	n/a	n/a	n/a	n/a	n/a
314.4133	0.5167	FIXCROSS	n/a	n/a	n/a	n/a	n/a	n/a	n/a	n/a
314.93	0.65	COLOR_NAME	33	Neutral	niebieski	blue	Neutral	Neutral	hit	n/a
315.5477	n/a	RESPONSE	n/a	n/a	n/a	n/a	n/a	n/a	n/a	blue
315.58	1.0167	ITI	n/a	n/a	n/a	n/a	n/a	n/a	n/a	n/a
316.5967	0.5167	FIXCROSS	n/a	n/a	n/a	n/a	n/a	n/a	n/a	n/a
317.1134	0.6167	COLOR_NAME	34	Incongruent	czerwony	red	zielony	green	hit	n/a
317.7072	n/a	RESPONSE	n/a	n/a	n/a	n/a	n/a	n/a	n/a	red
317.73	1.0167	ITI	n/a	n/a	n/a	n/a	n/a	n/a	n/a	n/a
318.7467	0.5167	FIXCROSS	n/a	n/a	n/a	n/a	n/a	n/a	n/a	n/a
319.2634	0.65	COLOR_NAME	35	Incongruent	niebieski	blue	żółty	yellow	hit	n/a
319.8828	n/a	RESPONSE	n/a	n/a	n/a	n/a	n/a	n/a	n/a	blue
319.9134	1.0167	ITI	n/a	n/a	n/a	n/a	n/a	n/a	n/a	n/a
320.9301	0.5167	FIXCROSS	n/a	n/a	n/a	n/a	n/a	n/a	n/a	n/a
321.4467	0.6167	COLOR_NAME	36	Neutral	zielony	green	Neutral	Neutral	hit	n/a
322.0423	n/a	RESPONSE	n/a	n/a	n/a	n/a	n/a	n/a	n/a	green
322.0634	1.0167	ITI	n/a	n/a	n/a	n/a	n/a	n/a	n/a	n/a
323.0801	0.5167	FIXCROSS	n/a	n/a	n/a	n/a	n/a	n/a	n/a	n/a
323.5968	0.7833	COLOR_NAME	37	Neutral	zielony	green	Neutral	Neutral	hit	n/a
324.3618	n/a	RESPONSE	n/a	n/a	n/a	n/a	n/a	n/a	n/a	green
324.3801	1.0167	ITI	n/a	n/a	n/a	n/a	n/a	n/a	n/a	n/a
325.3968	0.5167	FIXCROSS	n/a	n/a	n/a	n/a	n/a	n/a	n/a	n/a
325.9134	0.5167	COLOR_NAME	38	Neutral	zielony	green	Neutral	Neutral	hit	n/a
326.4094	n/a	RESPONSE	n/a	n/a	n/a	n/a	n/a	n/a	n/a	green
326.4301	1.0167	ITI	n/a	n/a	n/a	n/a	n/a	n/a	n/a	n/a
327.4468	0.5167	FIXCROSS	n/a	n/a	n/a	n/a	n/a	n/a	n/a	n/a
327.9635	0.65	COLOR_NAME	39	Neutral	czerwony	red	Neutral	Neutral	hit	n/a
328.5849	n/a	RESPONSE	n/a	n/a	n/a	n/a	n/a	n/a	n/a	red
328.6135	1.0167	ITI	n/a	n/a	n/a	n/a	n/a	n/a	n/a	n/a
329.6302	0.5167	FIXCROSS	n/a	n/a	n/a	n/a	n/a	n/a	n/a	n/a
330.1468	0.5167	COLOR_NAME	40	Incongruent	żółty	yellow	niebieski	blue	incorrect	n/a
330.6325	n/a	RESPONSE	n/a	n/a	n/a	n/a	n/a	n/a	n/a	green
330.6635	1.0167	ITI	n/a	n/a	n/a	n/a	n/a	n/a	n/a	n/a
331.6802	0.5167	FIXCROSS	n/a	n/a	n/a	n/a	n/a	n/a	n/a	n/a
332.1969	0.8167	COLOR_NAME	41	Incongruent	zielony	green	niebieski	blue	hit	n/a
332.984	n/a	RESPONSE	n/a	n/a	n/a	n/a	n/a	n/a	n/a	green
333.0135	1.0167	ITI	n/a	n/a	n/a	n/a	n/a	n/a	n/a	n/a
334.0302	0.5167	FIXCROSS	n/a	n/a	n/a	n/a	n/a	n/a	n/a	n/a
334.5469	0.5333	COLOR_NAME	42	Neutral	żółty	yellow	Neutral	Neutral	hit	n/a
335.0475	n/a	RESPONSE	n/a	n/a	n/a	n/a	n/a	n/a	n/a	yellow
335.0802	1.0167	ITI	n/a	n/a	n/a	n/a	n/a	n/a	n/a	n/a
336.0969	0.5167	FIXCROSS	n/a	n/a	n/a	n/a	n/a	n/a	n/a	n/a
336.6136	0.7333	COLOR_NAME	43	Incongruent	zielony	green	niebieski	blue	hit	n/a
337.319	n/a	RESPONSE	n/a	n/a	n/a	n/a	n/a	n/a	n/a	green
337.3469	1.0167	ITI	n/a	n/a	n/a	n/a	n/a	n/a	n/a	n/a
338.3636	0.5167	FIXCROSS	n/a	n/a	n/a	n/a	n/a	n/a	n/a	n/a
338.8803	0.65	COLOR_NAME	44	Neutral	zielony	green	Neutral	Neutral	hit	n/a
339.5106	n/a	RESPONSE	n/a	n/a	n/a	n/a	n/a	n/a	n/a	green
339.5303	1.0167	ITI	n/a	n/a	n/a	n/a	n/a	n/a	n/a	n/a
340.547	0.5167	FIXCROSS	n/a	n/a	n/a	n/a	n/a	n/a	n/a	n/a
341.0636	0.75	COLOR_NAME	45	Incongruent	żółty	yellow	czerwony	red	hit	n/a
341.782	n/a	RESPONSE	n/a	n/a	n/a	n/a	n/a	n/a	n/a	yellow
341.8136	1.0167	ITI	n/a	n/a	n/a	n/a	n/a	n/a	n/a	n/a
342.8303	0.5167	FIXCROSS	n/a	n/a	n/a	n/a	n/a	n/a	n/a	n/a
343.347	0.6833	COLOR_NAME	46	Incongruent	zielony	green	czerwony	red	hit	n/a
344.0056	n/a	RESPONSE	n/a	n/a	n/a	n/a	n/a	n/a	n/a	green
344.0303	1.0167	ITI	n/a	n/a	n/a	n/a	n/a	n/a	n/a	n/a
345.047	0.5167	FIXCROSS	n/a	n/a	n/a	n/a	n/a	n/a	n/a	n/a
345.5637	0.7334	COLOR_NAME	47	Incongruent	niebieski	blue	czerwony	red	hit	n/a
346.2771	n/a	RESPONSE	n/a	n/a	n/a	n/a	n/a	n/a	n/a	blue
346.297	1.0167	ITI	n/a	n/a	n/a	n/a	n/a	n/a	n/a	n/a
347.3137	0.5167	FIXCROSS	n/a	n/a	n/a	n/a	n/a	n/a	n/a	n/a
347.8304	0.7333	COLOR_NAME	48	Incongruent	zielony	green	żółty	yellow	hit	n/a
348.5326	n/a	RESPONSE	n/a	n/a	n/a	n/a	n/a	n/a	n/a	green
348.5637	1.0167	ITI	n/a	n/a	n/a	n/a	n/a	n/a	n/a	n/a
349.5804	0.5167	FIXCROSS	n/a	n/a	n/a	n/a	n/a	n/a	n/a	n/a
350.0971	0.5167	COLOR_NAME	49	Neutral	żółty	yellow	Neutral	Neutral	hit	n/a
350.5801	n/a	RESPONSE	n/a	n/a	n/a	n/a	n/a	n/a	n/a	yellow
350.6137	1.0167	ITI	n/a	n/a	n/a	n/a	n/a	n/a	n/a	n/a
351.6304	0.5167	FIXCROSS	n/a	n/a	n/a	n/a	n/a	n/a	n/a	n/a
352.1471	0.5333	COLOR_NAME	50	Neutral	czerwony	red	Neutral	Neutral	hit	n/a
352.6597	n/a	RESPONSE	n/a	n/a	n/a	n/a	n/a	n/a	n/a	red
352.6804	1.0167	ITI	n/a	n/a	n/a	n/a	n/a	n/a	n/a	n/a
353.6971	0.5167	FIXCROSS	n/a	n/a	n/a	n/a	n/a	n/a	n/a	n/a
354.2138	0.55	COLOR_NAME	51	Neutral	żółty	yellow	Neutral	Neutral	hit	n/a
354.7392	n/a	RESPONSE	n/a	n/a	n/a	n/a	n/a	n/a	n/a	yellow
354.7638	1.0167	ITI	n/a	n/a	n/a	n/a	n/a	n/a	n/a	n/a
355.7805	0.5167	FIXCROSS	n/a	n/a	n/a	n/a	n/a	n/a	n/a	n/a
356.2971	0.5667	COLOR_NAME	52	Incongruent	czerwony	red	niebieski	blue	hit	n/a
356.8348	n/a	RESPONSE	n/a	n/a	n/a	n/a	n/a	n/a	n/a	red
356.8638	1.0167	ITI	n/a	n/a	n/a	n/a	n/a	n/a	n/a	n/a
357.8805	0.5167	FIXCROSS	n/a	n/a	n/a	n/a	n/a	n/a	n/a	n/a
358.3972	0.7	COLOR_NAME	53	Neutral	niebieski	blue	Neutral	Neutral	hit	n/a
359.0743	n/a	RESPONSE	n/a	n/a	n/a	n/a	n/a	n/a	n/a	blue
359.0972	1.0167	ITI	n/a	n/a	n/a	n/a	n/a	n/a	n/a	n/a
360.1138	0.5167	FIXCROSS	n/a	n/a	n/a	n/a	n/a	n/a	n/a	n/a
360.6305	0.5667	COLOR_NAME	54	Incongruent	żółty	yellow	zielony	green	hit	n/a
361.1699	n/a	RESPONSE	n/a	n/a	n/a	n/a	n/a	n/a	n/a	yellow
361.1972	1.0167	ITI	n/a	n/a	n/a	n/a	n/a	n/a	n/a	n/a
362.2139	0.5167	FIXCROSS	n/a	n/a	n/a	n/a	n/a	n/a	n/a	n/a
362.7305	0.65	COLOR_NAME	55	Neutral	niebieski	blue	Neutral	Neutral	hit	n/a
363.3614	n/a	RESPONSE	n/a	n/a	n/a	n/a	n/a	n/a	n/a	blue
363.3806	1.0167	ITI	n/a	n/a	n/a	n/a	n/a	n/a	n/a	n/a
364.3972	0.5167	FIXCROSS	n/a	n/a	n/a	n/a	n/a	n/a	n/a	n/a
364.9139	0.45	COLOR_NAME	56	Neutral	czerwony	red	Neutral	Neutral	hit	n/a
365.345	n/a	RESPONSE	n/a	n/a	n/a	n/a	n/a	n/a	n/a	red
365.3639	1.0167	ITI	n/a	n/a	n/a	n/a	n/a	n/a	n/a	n/a
366.3806	0.5167	FIXCROSS	n/a	n/a	n/a	n/a	n/a	n/a	n/a	n/a
366.8973	0.6167	COLOR_NAME	57	Incongruent	niebieski	blue	czerwony	red	incorrect	n/a
367.4885	n/a	RESPONSE	n/a	n/a	n/a	n/a	n/a	n/a	n/a	green
367.5139	1.0167	ITI	n/a	n/a	n/a	n/a	n/a	n/a	n/a	n/a
368.5306	0.5167	FIXCROSS	n/a	n/a	n/a	n/a	n/a	n/a	n/a	n/a
369.0473	0.5333	COLOR_NAME	58	Incongruent	niebieski	blue	żółty	yellow	hit	n/a
369.552	n/a	RESPONSE	n/a	n/a	n/a	n/a	n/a	n/a	n/a	blue
369.5806	1.0167	ITI	n/a	n/a	n/a	n/a	n/a	n/a	n/a	n/a
370.5973	0.5167	FIXCROSS	n/a	n/a	n/a	n/a	n/a	n/a	n/a	n/a
371.114	0.4833	COLOR_NAME	59	Neutral	żółty	yellow	Neutral	Neutral	incorrect	n/a
371.5676	n/a	RESPONSE	n/a	n/a	n/a	n/a	n/a	n/a	n/a	green
371.5973	1.0	ITI	n/a	n/a	n/a	n/a	n/a	n/a	n/a	n/a
372.5973	0.5167	FIXCROSS	n/a	n/a	n/a	n/a	n/a	n/a	n/a	n/a
373.114	0.45	COLOR_NAME	60	Incongruent	żółty	yellow	niebieski	blue	hit	n/a
373.5352	n/a	RESPONSE	n/a	n/a	n/a	n/a	n/a	n/a	n/a	yellow
373.564	1.0167	ITI	n/a	n/a	n/a	n/a	n/a	n/a	n/a	n/a
374.5807	0.5167	FIXCROSS	n/a	n/a	n/a	n/a	n/a	n/a	n/a	n/a
375.0973	0.5167	COLOR_NAME	61	Incongruent	żółty	yellow	zielony	green	hit	n/a
375.5827	n/a	RESPONSE	n/a	n/a	n/a	n/a	n/a	n/a	n/a	yellow
375.614	1.0167	ITI	n/a	n/a	n/a	n/a	n/a	n/a	n/a	n/a
376.6307	0.5167	FIXCROSS	n/a	n/a	n/a	n/a	n/a	n/a	n/a	n/a
377.1474	0.5833	COLOR_NAME	62	Incongruent	niebieski	blue	zielony	green	hit	n/a
377.7103	n/a	RESPONSE	n/a	n/a	n/a	n/a	n/a	n/a	n/a	blue
377.7307	1.0167	ITI	n/a	n/a	n/a	n/a	n/a	n/a	n/a	n/a
378.7474	0.5167	FIXCROSS	n/a	n/a	n/a	n/a	n/a	n/a	n/a	n/a
379.2641	0.4333	COLOR_NAME	63	Neutral	zielony	green	Neutral	Neutral	hit	n/a
379.6779	n/a	RESPONSE	n/a	n/a	n/a	n/a	n/a	n/a	n/a	green
379.6974	1.0167	ITI	n/a	n/a	n/a	n/a	n/a	n/a	n/a	n/a
380.7141	0.5167	FIXCROSS	n/a	n/a	n/a	n/a	n/a	n/a	n/a	n/a
381.2307	0.6667	COLOR_NAME	64	Incongruent	zielony	green	czerwony	red	hit	n/a
381.8694	n/a	RESPONSE	n/a	n/a	n/a	n/a	n/a	n/a	n/a	green
381.8974	1.0167	ITI	n/a	n/a	n/a	n/a	n/a	n/a	n/a	n/a
382.9141	0.5167	FIXCROSS	n/a	n/a	n/a	n/a	n/a	n/a	n/a	n/a
383.4308	0.5667	COLOR_NAME	65	Incongruent	zielony	green	żółty	yellow	hit	n/a
383.9649	n/a	RESPONSE	n/a	n/a	n/a	n/a	n/a	n/a	n/a	green
383.9974	1.0167	ITI	n/a	n/a	n/a	n/a	n/a	n/a	n/a	n/a
385.0141	0.5167	FIXCROSS	n/a	n/a	n/a	n/a	n/a	n/a	n/a	n/a
385.5308	0.6167	COLOR_NAME	66	Neutral	niebieski	blue	Neutral	Neutral	hit	n/a
386.1244	n/a	RESPONSE	n/a	n/a	n/a	n/a	n/a	n/a	n/a	blue
386.1475	1.0167	ITI	n/a	n/a	n/a	n/a	n/a	n/a	n/a	n/a
387.1641	0.5167	FIXCROSS	n/a	n/a	n/a	n/a	n/a	n/a	n/a	n/a
387.6808	0.5833	COLOR_NAME	67	Neutral	żółty	yellow	Neutral	Neutral	hit	n/a
388.236	n/a	RESPONSE	n/a	n/a	n/a	n/a	n/a	n/a	n/a	yellow
388.2642	1.0167	ITI	n/a	n/a	n/a	n/a	n/a	n/a	n/a	n/a
389.2808	0.5167	FIXCROSS	n/a	n/a	n/a	n/a	n/a	n/a	n/a	n/a
389.7975	0.6167	COLOR_NAME	68	Neutral	żółty	yellow	Neutral	Neutral	hit	n/a
390.3955	n/a	RESPONSE	n/a	n/a	n/a	n/a	n/a	n/a	n/a	yellow
390.4142	1.0167	ITI	n/a	n/a	n/a	n/a	n/a	n/a	n/a	n/a
391.4309	0.5167	FIXCROSS	n/a	n/a	n/a	n/a	n/a	n/a	n/a	n/a
391.9475	0.6667	COLOR_NAME	69	Neutral	czerwony	red	Neutral	Neutral	incorrect	n/a
392.5871	n/a	RESPONSE	n/a	n/a	n/a	n/a	n/a	n/a	n/a	blue
392.6142	1.0167	ITI	n/a	n/a	n/a	n/a	n/a	n/a	n/a	n/a
392.7471	n/a	RESPONSE	n/a	n/a	n/a	n/a	n/a	n/a	n/a	red
393.6309	0.5167	FIXCROSS	n/a	n/a	n/a	n/a	n/a	n/a	n/a	n/a
394.1476	0.5333	COLOR_NAME	70	Incongruent	czerwony	red	żółty	yellow	hit	n/a
394.6506	n/a	RESPONSE	n/a	n/a	n/a	n/a	n/a	n/a	n/a	red
394.6809	1.0167	ITI	n/a	n/a	n/a	n/a	n/a	n/a	n/a	n/a
395.6976	0.5167	FIXCROSS	n/a	n/a	n/a	n/a	n/a	n/a	n/a	n/a
396.2142	0.5333	COLOR_NAME	71	Incongruent	żółty	yellow	zielony	green	hit	n/a
396.7142	n/a	RESPONSE	n/a	n/a	n/a	n/a	n/a	n/a	n/a	yellow
396.7476	1.0167	ITI	n/a	n/a	n/a	n/a	n/a	n/a	n/a	n/a
397.7643	0.5167	FIXCROSS	n/a	n/a	n/a	n/a	n/a	n/a	n/a	n/a
398.2809	0.5333	COLOR_NAME	72	Neutral	żółty	yellow	Neutral	Neutral	hit	n/a
398.7937	n/a	RESPONSE	n/a	n/a	n/a	n/a	n/a	n/a	n/a	yellow
398.8143	1.0334	ITI	n/a	n/a	n/a	n/a	n/a	n/a	n/a	n/a
402.329	n/a	RESPONSE	n/a	n/a	n/a	n/a	n/a	n/a	n/a	n/a
