onset	duration	trial_type	melody_number	melody_part	key	sound	action
0.0	14.088	CUE_START	n/a	n/a	n/a	n/a	n/a
14.088	7.76	FIXCROSS	n/a	n/a	n/a	n/a	n/a
21.848	6.315	CUE_LISTEN	M1	1	n/a	n/a	n/a
28.163	7.758	FIXCROSS	n/a	n/a	n/a	n/a	n/a
35.921	6.317	CUE_PLAYBACK_RIGHT_HAND	M1	1	n/a	n/a	n/a
36.5	n/a	RESPONSE	M1	1	19	G4	press
37.009	n/a	RESPONSE	M1	1	16	E4	press
37.285	n/a	RESPONSE	M1	1	16	E4	release
37.55	n/a	RESPONSE	M1	1	19	G4	release
37.576	n/a	RESPONSE	M1	1	16	E4	press
38.074	n/a	RESPONSE	M1	1	17	F4	press
38.117	n/a	RESPONSE	M1	1	16	E4	release
38.607	n/a	RESPONSE	M1	1	14	D4	press
38.782	n/a	RESPONSE	M1	1	17	F4	release
38.865	n/a	RESPONSE	M1	1	14	D4	release
39.131	n/a	RESPONSE	M1	1	14	D4	press
39.602	n/a	RESPONSE	M1	1	14	D4	release
39.612	n/a	RESPONSE	M1	1	12	C4	press
39.897	n/a	RESPONSE	M1	1	16	E4	press
39.944	n/a	RESPONSE	M1	1	12	C4	release
40.136	n/a	RESPONSE	M1	1	19	G4	press
40.212	n/a	RESPONSE	M1	1	16	E4	release
41.646	n/a	RESPONSE	M1	1	19	G4	release
42.238	7.758	FIXCROSS	n/a	n/a	n/a	n/a	n/a
49.996	6.325	CUE_LISTEN	        M1	2	n/a	n/a	n/a
56.321	7.758	FIXCROSS	n/a	n/a	n/a	n/a	n/a
64.08	6.317	CUE_PLAYBACK_RIGHT_HAND	        M1	2	n/a	n/a	n/a
64.916	n/a	RESPONSE	        M1	2	16	E4	press
65.319	n/a	RESPONSE	        M1	2	16	E4	release
66.847	n/a	RESPONSE	        M1	2	19	G4	press
67.247	n/a	RESPONSE	        M1	2	16	E4	press
67.331	n/a	RESPONSE	        M1	2	19	G4	release
67.511	n/a	RESPONSE	        M1	2	16	E4	release
67.65	n/a	RESPONSE	        M1	2	16	E4	press
67.912	n/a	RESPONSE	        M1	2	16	E4	release
67.984	n/a	RESPONSE	        M1	2	17	F4	press
68.342	n/a	RESPONSE	        M1	2	14	D4	press
68.522	n/a	RESPONSE	        M1	2	14	D4	release
68.719	n/a	RESPONSE	        M1	2	14	D4	press
68.757	n/a	RESPONSE	        M1	2	17	F4	release
69.074	n/a	RESPONSE	        M1	2	12	C4	press
69.076	n/a	RESPONSE	        M1	2	14	D4	release
69.281	n/a	RESPONSE	        M1	2	16	E4	press
69.332	n/a	RESPONSE	        M1	2	12	C4	release
69.551	n/a	RESPONSE	        M1	2	12	C4	press
69.615	n/a	RESPONSE	        M1	2	16	E4	release
70.396	7.758	FIXCROSS	n/a	n/a	n/a	n/a	n/a
71.225	n/a	RESPONSE	        M1	2	12	C4	release
78.155	6.317	CUE_LISTEN	        M7	1	n/a	n/a	n/a
84.472	7.758	FIXCROSS	n/a	n/a	n/a	n/a	n/a
87.16	n/a	RESPONSE	        M7	1	12	C4	press
87.491	n/a	RESPONSE	        M7	1	12	C4	release
92.23	6.325	CUE_PLAYBACK_BOTH_HANDS	        M7	1	n/a	n/a	n/a
93.106	n/a	RESPONSE	        M7	1	07	G3	press
93.164	n/a	RESPONSE	        M7	1	22	A#4	press
93.672	n/a	RESPONSE	        M7	1	21	A4	press
93.745	n/a	RESPONSE	        M7	1	22	A#4	release
94.157	n/a	RESPONSE	        M7	1	19	G4	press
94.214	n/a	RESPONSE	        M7	1	21	A4	release
94.614	n/a	RESPONSE	        M7	1	21	A4	press
94.629	n/a	RESPONSE	        M7	1	05	F3	press
94.671	n/a	RESPONSE	        M7	1	07	G3	release
94.689	n/a	RESPONSE	        M7	1	19	G4	release
95.171	n/a	RESPONSE	        M7	1	16	E4	press
95.397	n/a	RESPONSE	        M7	1	21	A4	release
95.44	n/a	RESPONSE	        M7	1	16	E4	release
96.199	n/a	RESPONSE	        M7	1	22	A#4	press
96.627	n/a	RESPONSE	        M7	1	21	A4	press
96.765	n/a	RESPONSE	        M7	1	22	A#4	release
97.069	n/a	RESPONSE	        M7	1	19	G4	press
97.154	n/a	RESPONSE	        M7	1	21	A4	release
97.539	n/a	RESPONSE	        M7	1	21	A4	press
97.61	n/a	RESPONSE	        M7	1	19	G4	release
98.489	n/a	RESPONSE	        M7	1	14	D4	press
98.555	7.758	FIXCROSS	n/a	n/a	n/a	n/a	n/a
98.572	n/a	RESPONSE	        M7	1	21	A4	release
98.852	n/a	RESPONSE	        M7	1	14	D4	release
99.04	n/a	RESPONSE	        M7	1	14	D4	press
99.461	n/a	RESPONSE	        M7	1	17	F4	press
99.501	n/a	RESPONSE	        M7	1	03	D#3	press
99.532	n/a	RESPONSE	        M7	1	14	D4	release
99.541	n/a	RESPONSE	        M7	1	05	F3	release
100.266	n/a	RESPONSE	        M7	1	17	F4	release
100.282	n/a	RESPONSE	        M7	1	07	G3	press
100.329	n/a	RESPONSE	        M7	1	09	A3	press
100.42	n/a	RESPONSE	        M7	1	09	A3	release
100.661	n/a	RESPONSE	        M7	1	09	A3	press
100.67	n/a	RESPONSE	        M7	1	07	G3	release
100.957	n/a	RESPONSE	        M7	1	10	A#3	press
100.997	n/a	RESPONSE	        M7	1	09	A3	release
101.244	n/a	RESPONSE	        M7	1	12	C4	press
101.277	n/a	RESPONSE	        M7	1	10	A#3	release
102.415	n/a	RESPONSE	        M7	1	12	C4	release
102.554	n/a	RESPONSE	        M7	1	02	D3	press
102.557	n/a	RESPONSE	        M7	1	12	C4	press
102.611	n/a	RESPONSE	        M7	1	03	D#3	release
103.245	n/a	RESPONSE	        M7	1	12	C4	release
103.274	n/a	RESPONSE	        M7	1	02	D3	release
103.577	n/a	RESPONSE	        M7	1	14	D4	press
104.405	n/a	RESPONSE	        M7	1	14	D4	release
106.313	6.317	CUE_LISTEN	        M7	2	n/a	n/a	n/a
112.63	7.758	FIXCROSS	n/a	n/a	n/a	n/a	n/a
120.388	6.317	CUE_PLAYBACK_BOTH_HANDS	        M7	2	n/a	n/a	n/a
122.436	n/a	RESPONSE	        M7	2	09	A3	press
122.439	n/a	RESPONSE	        M7	2	15	D#4	press
122.467	n/a	RESPONSE	        M7	2	12	C4	press
123.1	n/a	RESPONSE	        M7	2	17	F4	press
123.142	n/a	RESPONSE	        M7	2	15	D#4	release
123.419	n/a	RESPONSE	        M7	2	15	D#4	press
123.544	n/a	RESPONSE	        M7	2	17	F4	release
123.737	n/a	RESPONSE	        M7	2	14	D4	press
123.766	n/a	RESPONSE	        M7	2	07	G3	press
123.809	n/a	RESPONSE	        M7	2	12	C4	release
123.824	n/a	RESPONSE	        M7	2	09	A3	release
124.074	n/a	RESPONSE	        M7	2	15	D#4	release
124.076	n/a	RESPONSE	        M7	2	12	C4	press
124.282	n/a	RESPONSE	        M7	2	14	D4	release
124.462	n/a	RESPONSE	        M7	2	14	D4	press
124.492	n/a	RESPONSE	        M7	2	11	B3	press
124.495	n/a	RESPONSE	        M7	2	12	C4	release
124.604	n/a	RESPONSE	        M7	2	07	G3	release
125.185	n/a	RESPONSE	        M7	2	13	C#4	press
125.241	n/a	RESPONSE	        M7	2	14	D4	release
125.244	n/a	RESPONSE	        M7	2	08	G#3	press
125.271	n/a	RESPONSE	        M7	2	11	B3	release
125.647	n/a	RESPONSE	        M7	2	13	C#4	release
125.717	n/a	RESPONSE	        M7	2	08	G#3	release
126.705	7.758	FIXCROSS	n/a	n/a	n/a	n/a	n/a
134.463	6.325	CUE_LISTEN	        M5	1	n/a	n/a	n/a
140.788	7.758	FIXCROSS	n/a	n/a	n/a	n/a	n/a
148.547	6.317	CUE_PLAYBACK_RIGHT_HAND	        M5	1	n/a	n/a	n/a
149.211	n/a	RESPONSE	        M5	1	21	A4	press
149.386	n/a	RESPONSE	        M5	1	21	A4	release
149.506	n/a	RESPONSE	        M5	1	21	A4	press
149.687	n/a	RESPONSE	        M5	1	21	A4	release
149.824	n/a	RESPONSE	        M5	1	21	A4	press
150.271	n/a	RESPONSE	        M5	1	21	A4	release
150.415	n/a	RESPONSE	        M5	1	21	A4	press
150.59	n/a	RESPONSE	        M5	1	21	A4	release
150.725	n/a	RESPONSE	        M5	1	21	A4	press
150.869	n/a	RESPONSE	        M5	1	21	A4	release
151.012	n/a	RESPONSE	        M5	1	21	A4	press
151.451	n/a	RESPONSE	        M5	1	21	A4	release
151.637	n/a	RESPONSE	        M5	1	21	A4	press
151.979	n/a	RESPONSE	        M5	1	24	C5	press
152.019	n/a	RESPONSE	        M5	1	21	A4	release
152.351	n/a	RESPONSE	        M5	1	23	B4	press
152.38	n/a	RESPONSE	        M5	1	24	C5	release
152.697	n/a	RESPONSE	        M5	1	23	B4	release
152.907	n/a	RESPONSE	        M5	1	21	A4	press
153.059	n/a	RESPONSE	        M5	1	21	A4	release
153.127	n/a	RESPONSE	        M5	1	21	A4	press
153.307	n/a	RESPONSE	        M5	1	21	A4	release
153.377	n/a	RESPONSE	        M5	1	21	A4	press
153.711	n/a	RESPONSE	        M5	1	21	A4	release
153.821	n/a	RESPONSE	        M5	1	21	A4	press
153.987	n/a	RESPONSE	        M5	1	21	A4	release
154.072	n/a	RESPONSE	        M5	1	21	A4	press
154.225	n/a	RESPONSE	        M5	1	21	A4	release
154.322	n/a	RESPONSE	        M5	1	21	A4	press
154.502	n/a	RESPONSE	        M5	1	21	A4	release
154.682	n/a	RESPONSE	        M5	1	21	A4	press
154.863	7.758	FIXCROSS	n/a	n/a	n/a	n/a	n/a
154.959	n/a	RESPONSE	        M5	1	24	C5	press
155.029	n/a	RESPONSE	        M5	1	21	A4	release
155.295	n/a	RESPONSE	        M5	1	16	E4	press
155.297	n/a	RESPONSE	        M5	1	17	F4	press
155.34	n/a	RESPONSE	        M5	1	24	C5	release
155.589	n/a	RESPONSE	        M5	1	17	F4	release
155.591	n/a	RESPONSE	        M5	1	16	E4	release
155.742	n/a	RESPONSE	        M5	1	17	F4	press
156.046	n/a	RESPONSE	        M5	1	19	G4	press
156.311	n/a	RESPONSE	        M5	1	17	F4	release
156.339	n/a	RESPONSE	        M5	1	21	A4	press
156.697	n/a	RESPONSE	        M5	1	19	G4	release
157.194	n/a	RESPONSE	        M5	1	21	A4	release
162.622	6.317	CUE_LISTEN	        M5	2	n/a	n/a	n/a
168.938	7.758	FIXCROSS	n/a	n/a	n/a	n/a	n/a
176.697	6.325	CUE_PLAYBACK_RIGHT_HAND	        M5	2	n/a	n/a	n/a
177.251	n/a	RESPONSE	        M5	2	22	A#4	press
177.459	n/a	RESPONSE	        M5	2	22	A#4	release
177.639	n/a	RESPONSE	        M5	2	22	A#4	press
177.806	n/a	RESPONSE	        M5	2	22	A#4	release
177.985	n/a	RESPONSE	        M5	2	22	A#4	press
178.167	n/a	RESPONSE	        M5	2	22	A#4	release
178.36	n/a	RESPONSE	        M5	2	22	A#4	press
178.451	n/a	RESPONSE	        M5	2	22	A#4	release
178.63	n/a	RESPONSE	        M5	2	22	A#4	press
179.015	n/a	RESPONSE	        M5	2	21	A4	press
179.099	n/a	RESPONSE	        M5	2	22	A#4	release
179.384	n/a	RESPONSE	        M5	2	21	A4	release
179.392	n/a	RESPONSE	        M5	2	19	G4	press
179.726	n/a	RESPONSE	        M5	2	19	G4	release
180.216	n/a	RESPONSE	        M5	2	22	A#4	press
180.427	n/a	RESPONSE	        M5	2	22	A#4	release
180.549	n/a	RESPONSE	        M5	2	22	A#4	press
180.76	n/a	RESPONSE	        M5	2	22	A#4	release
180.896	n/a	RESPONSE	        M5	2	22	A#4	press
181.107	n/a	RESPONSE	        M5	2	22	A#4	release
181.221	n/a	RESPONSE	        M5	2	22	A#4	press
181.41	n/a	RESPONSE	        M5	2	22	A#4	release
181.546	n/a	RESPONSE	        M5	2	22	A#4	press
181.894	n/a	RESPONSE	        M5	2	21	A4	press
181.939	n/a	RESPONSE	        M5	2	22	A#4	release
182.102	n/a	RESPONSE	        M5	2	21	A4	release
182.241	n/a	RESPONSE	        M5	2	21	A4	press
182.462	n/a	RESPONSE	        M5	2	21	A4	release
182.589	n/a	RESPONSE	        M5	2	21	A4	press
182.81	n/a	RESPONSE	        M5	2	21	A4	release
183.022	7.758	FIXCROSS	n/a	n/a	n/a	n/a	n/a
183.112	n/a	RESPONSE	        M5	2	19	G4	press
183.306	n/a	RESPONSE	        M5	2	19	G4	release
183.816	n/a	RESPONSE	        M5	2	21	A4	press
183.886	n/a	RESPONSE	        M5	2	21	A4	release
183.984	n/a	RESPONSE	        M5	2	21	A4	press
184.371	n/a	RESPONSE	        M5	2	19	G4	press
184.375	n/a	RESPONSE	        M5	2	21	A4	release
184.552	n/a	RESPONSE	        M5	2	19	G4	release
184.952	n/a	RESPONSE	        M5	2	19	G4	press
185.467	n/a	RESPONSE	        M5	2	19	G4	release
190.78	6.316	CUE_LISTEN	        M3	1	n/a	n/a	n/a
197.097	7.758	FIXCROSS	n/a	n/a	n/a	n/a	n/a
204.855	6.317	CUE_PLAYBACK_BOTH_HANDS	        M3	1	n/a	n/a	n/a
205.401	n/a	RESPONSE	        M3	1	00	C3	press
205.416	n/a	RESPONSE	        M3	1	12	C4	press
205.747	n/a	RESPONSE	        M3	1	07	G3	press
205.804	n/a	RESPONSE	        M3	1	14	D4	press
205.832	n/a	RESPONSE	        M3	1	00	C3	release
205.847	n/a	RESPONSE	        M3	1	12	C4	release
206.097	n/a	RESPONSE	        M3	1	04	E3	press
206.14	n/a	RESPONSE	        M3	1	16	E4	press
206.169	n/a	RESPONSE	        M3	1	07	G3	release
206.225	n/a	RESPONSE	        M3	1	14	D4	release
206.474	n/a	RESPONSE	        M3	1	07	G3	press
206.544	n/a	RESPONSE	        M3	1	12	C4	press
206.56	n/a	RESPONSE	        M3	1	04	E3	release
206.601	n/a	RESPONSE	        M3	1	16	E4	release
206.726	n/a	RESPONSE	        M3	1	12	C4	release
206.865	n/a	RESPONSE	        M3	1	00	C3	press
206.894	n/a	RESPONSE	        M3	1	07	G3	release
207.335	n/a	RESPONSE	        M3	1	00	C3	release
207.446	n/a	RESPONSE	        M3	1	00	C3	press
207.449	n/a	RESPONSE	        M3	1	12	C4	press
207.765	n/a	RESPONSE	        M3	1	07	G3	press
207.78	n/a	RESPONSE	        M3	1	14	D4	press
207.836	n/a	RESPONSE	        M3	1	00	C3	release
207.851	n/a	RESPONSE	        M3	1	12	C4	release
208.076	n/a	RESPONSE	        M3	1	04	E3	press
208.104	n/a	RESPONSE	        M3	1	16	E4	press
208.174	n/a	RESPONSE	        M3	1	07	G3	release
208.202	n/a	RESPONSE	        M3	1	14	D4	release
208.422	n/a	RESPONSE	        M3	1	07	G3	press
208.455	n/a	RESPONSE	        M3	1	12	C4	press
208.465	n/a	RESPONSE	        M3	1	16	E4	release
208.504	n/a	RESPONSE	        M3	1	04	E3	release
208.735	n/a	RESPONSE	        M3	1	12	C4	release
208.751	n/a	RESPONSE	        M3	1	00	C3	press
208.754	n/a	RESPONSE	        M3	1	16	E4	press
208.814	n/a	RESPONSE	        M3	1	07	G3	release
209.1	n/a	RESPONSE	        M3	1	17	F4	press
209.104	n/a	RESPONSE	        M3	1	16	E4	release
209.147	n/a	RESPONSE	        M3	1	00	C3	release
209.171	n/a	RESPONSE	        M3	1	07	G3	press
209.502	n/a	RESPONSE	        M3	1	07	G3	release
209.511	n/a	RESPONSE	        M3	1	17	F4	release
209.79	n/a	RESPONSE	        M3	1	12	C4	press
209.792	n/a	RESPONSE	        M3	1	00	C3	press
210.084	n/a	RESPONSE	        M3	1	07	G3	press
210.112	n/a	RESPONSE	        M3	1	14	D4	press
210.151	n/a	RESPONSE	        M3	1	12	C4	release
210.16	n/a	RESPONSE	        M3	1	00	C3	release
210.366	n/a	RESPONSE	        M3	1	04	E3	press
210.395	n/a	RESPONSE	        M3	1	16	E4	press
210.441	n/a	RESPONSE	        M3	1	07	G3	release
210.525	n/a	RESPONSE	        M3	1	14	D4	release
210.677	n/a	RESPONSE	        M3	1	07	G3	press
210.707	n/a	RESPONSE	        M3	1	12	C4	press
210.755	n/a	RESPONSE	        M3	1	04	E3	release
210.807	n/a	RESPONSE	        M3	1	16	E4	release
210.892	n/a	RESPONSE	        M3	1	12	C4	release
210.982	n/a	RESPONSE	        M3	1	12	C4	press
210.985	n/a	RESPONSE	        M3	1	00	C3	press
210.992	n/a	RESPONSE	        M3	1	07	G3	release
211.172	7.758	FIXCROSS	n/a	n/a	n/a	n/a	n/a
211.249	n/a	RESPONSE	        M3	1	07	G3	press
211.295	n/a	RESPONSE	        M3	1	14	D4	press
211.335	n/a	RESPONSE	        M3	1	00	C3	release
211.35	n/a	RESPONSE	        M3	1	12	C4	release
211.524	n/a	RESPONSE	        M3	1	04	E3	press
211.556	n/a	RESPONSE	        M3	1	16	E4	press
211.579	n/a	RESPONSE	        M3	1	07	G3	release
211.64	n/a	RESPONSE	        M3	1	14	D4	release
211.836	n/a	RESPONSE	        M3	1	07	G3	press
211.861	n/a	RESPONSE	        M3	1	12	C4	press
211.906	n/a	RESPONSE	        M3	1	16	E4	release
211.93	n/a	RESPONSE	        M3	1	04	E3	release
212.122	n/a	RESPONSE	        M3	1	16	E4	press
212.137	n/a	RESPONSE	        M3	1	00	C3	press
212.152	n/a	RESPONSE	        M3	1	12	C4	release
212.195	n/a	RESPONSE	        M3	1	07	G3	release
212.391	n/a	RESPONSE	        M3	1	17	F4	press
212.42	n/a	RESPONSE	        M3	1	07	G3	press
212.449	n/a	RESPONSE	        M3	1	16	E4	release
212.49	n/a	RESPONSE	        M3	1	00	C3	release
212.74	n/a	RESPONSE	        M3	1	19	G4	press
212.742	n/a	RESPONSE	        M3	1	04	E3	press
212.796	n/a	RESPONSE	        M3	1	17	F4	release
212.811	n/a	RESPONSE	        M3	1	07	G3	release
213.019	n/a	RESPONSE	        M3	1	07	G3	press
213.089	n/a	RESPONSE	        M3	1	04	E3	release
213.324	n/a	RESPONSE	        M3	1	00	C3	press
213.339	n/a	RESPONSE	        M3	1	16	E4	press
213.367	n/a	RESPONSE	        M3	1	19	G4	release
213.37	n/a	RESPONSE	        M3	1	07	G3	release
213.617	n/a	RESPONSE	        M3	1	07	G3	press
213.647	n/a	RESPONSE	        M3	1	17	F4	press
213.664	n/a	RESPONSE	        M3	1	00	C3	release
213.717	n/a	RESPONSE	        M3	1	16	E4	release
213.911	n/a	RESPONSE	        M3	1	04	E3	press
213.956	n/a	RESPONSE	        M3	1	19	G4	press
213.982	n/a	RESPONSE	        M3	1	07	G3	release
214.011	n/a	RESPONSE	        M3	1	17	F4	release
214.289	n/a	RESPONSE	        M3	1	07	G3	press
214.292	n/a	RESPONSE	        M3	1	19	G4	release
214.374	n/a	RESPONSE	        M3	1	04	E3	release
214.567	n/a	RESPONSE	        M3	1	07	G3	release
218.93	6.325	CUE_LISTEN	        M3	2	n/a	n/a	n/a
225.255	7.758	FIXCROSS	n/a	n/a	n/a	n/a	n/a
233.014	6.317	CUE_PLAYBACK_BOTH_HANDS	        M3	2	n/a	n/a	n/a
233.641	n/a	RESPONSE	        M3	2	00	C3	press
233.67	n/a	RESPONSE	        M3	2	19	G4	press
233.946	n/a	RESPONSE	        M3	2	21	A4	press
234.03	n/a	RESPONSE	        M3	2	19	G4	release
234.197	n/a	RESPONSE	        M3	2	07	G3	press
234.215	n/a	RESPONSE	        M3	2	19	G4	press
234.245	n/a	RESPONSE	        M3	2	00	C3	release
234.285	n/a	RESPONSE	        M3	2	21	A4	release
235.309	n/a	RESPONSE	        M3	2	19	G4	release
235.434	n/a	RESPONSE	        M3	2	07	G3	release
235.627	n/a	RESPONSE	        M3	2	19	G4	press
235.642	n/a	RESPONSE	        M3	2	00	C3	press
235.905	n/a	RESPONSE	        M3	2	21	A4	press
235.961	n/a	RESPONSE	        M3	2	19	G4	release
236.104	n/a	RESPONSE	        M3	2	07	G3	press
236.157	n/a	RESPONSE	        M3	2	19	G4	press
236.241	n/a	RESPONSE	        M3	2	21	A4	release
236.244	n/a	RESPONSE	        M3	2	00	C3	release
236.422	n/a	RESPONSE	        M3	2	17	F4	press
236.52	n/a	RESPONSE	        M3	2	19	G4	release
236.645	n/a	RESPONSE	        M3	2	04	E3	press
236.674	n/a	RESPONSE	        M3	2	16	E4	press
236.73	n/a	RESPONSE	        M3	2	07	G3	release
236.869	n/a	RESPONSE	        M3	2	17	F4	release
237.079	n/a	RESPONSE	        M3	2	07	G3	press
237.081	n/a	RESPONSE	        M3	2	14	D4	press
237.121	n/a	RESPONSE	        M3	2	16	E4	release
237.177	n/a	RESPONSE	        M3	2	04	E3	release
237.481	n/a	RESPONSE	        M3	2	19	G4	press
237.51	n/a	RESPONSE	        M3	2	00	C3	press
237.525	n/a	RESPONSE	        M3	2	14	D4	release
237.581	n/a	RESPONSE	        M3	2	07	G3	release
237.706	n/a	RESPONSE	        M3	2	21	A4	press
237.75	n/a	RESPONSE	        M3	2	19	G4	release
237.874	n/a	RESPONSE	        M3	2	19	G4	press
237.93	n/a	RESPONSE	        M3	2	07	G3	press
237.972	n/a	RESPONSE	        M3	2	21	A4	release
237.975	n/a	RESPONSE	        M3	2	00	C3	release
238.127	n/a	RESPONSE	        M3	2	17	F4	press
238.239	n/a	RESPONSE	        M3	2	19	G4	release
238.31	n/a	RESPONSE	        M3	2	04	E3	press
238.354	n/a	RESPONSE	        M3	2	16	E4	press
238.384	n/a	RESPONSE	        M3	2	07	G3	release
238.445	n/a	RESPONSE	        M3	2	17	F4	release
238.686	n/a	RESPONSE	        M3	2	07	G3	press
238.757	n/a	RESPONSE	        M3	2	12	C4	press
238.78	n/a	RESPONSE	        M3	2	04	E3	release
238.802	n/a	RESPONSE	        M3	2	16	E4	release
238.954	n/a	RESPONSE	        M3	2	12	C4	release
238.987	n/a	RESPONSE	        M3	2	07	G3	release
239.054	n/a	RESPONSE	        M3	2	12	C4	press
239.057	n/a	RESPONSE	        M3	2	00	C3	press
239.244	n/a	RESPONSE	        M3	2	12	C4	release
239.33	7.758	FIXCROSS	n/a	n/a	n/a	n/a	n/a
239.412	n/a	RESPONSE	        M3	2	07	G3	press
239.418	n/a	RESPONSE	        M3	2	09	A3	press
239.55	n/a	RESPONSE	        M3	2	00	C3	release
239.564	n/a	RESPONSE	        M3	2	07	G3	release
239.572	n/a	RESPONSE	        M3	2	09	A3	release
239.734	n/a	RESPONSE	        M3	2	12	C4	press
239.77	n/a	RESPONSE	        M3	2	00	C3	press
240.277	n/a	RESPONSE	        M3	2	00	C3	release
240.281	n/a	RESPONSE	        M3	2	12	C4	release
240.447	n/a	RESPONSE	        M3	2	12	C4	press
240.454	n/a	RESPONSE	        M3	2	00	C3	press
240.628	n/a	RESPONSE	        M3	2	12	C4	release
240.81	n/a	RESPONSE	        M3	2	07	G3	press
240.915	n/a	RESPONSE	        M3	2	00	C3	release
240.991	n/a	RESPONSE	        M3	2	07	G3	release
241.15	n/a	RESPONSE	        M3	2	12	C4	press
241.181	n/a	RESPONSE	        M3	2	00	C3	press
242.502	n/a	RESPONSE	        M3	2	00	C3	release
242.598	n/a	RESPONSE	        M3	2	12	C4	release
247.089	6.325	CUE_LISTEN	        M6	1	n/a	n/a	n/a
253.414	7.758	FIXCROSS	n/a	n/a	n/a	n/a	n/a
255.385	n/a	RESPONSE	        M6	1	17	F4	press
255.592	n/a	RESPONSE	        M6	1	17	F4	release
255.786	n/a	RESPONSE	        M6	1	17	F4	press
256.135	n/a	RESPONSE	        M6	1	17	F4	release
256.604	n/a	RESPONSE	        M6	1	19	G4	press
256.836	n/a	RESPONSE	        M6	1	18	F#4	press
256.878	n/a	RESPONSE	        M6	1	19	G4	release
257.031	n/a	RESPONSE	        M6	1	18	F#4	release
257.034	n/a	RESPONSE	        M6	1	19	G4	press
257.322	n/a	RESPONSE	        M6	1	19	G4	release
261.172	6.317	CUE_PLAYBACK_BOTH_HANDS	        M6	1	n/a	n/a	n/a
262.075	n/a	RESPONSE	        M6	1	04	E3	press
262.077	n/a	RESPONSE	        M6	1	16	E4	press
262.435	n/a	RESPONSE	        M6	1	19	G4	press
262.518	n/a	RESPONSE	        M6	1	11	B3	press
262.535	n/a	RESPONSE	        M6	1	12	C4	press
262.604	n/a	RESPONSE	        M6	1	16	E4	release
262.606	n/a	RESPONSE	        M6	1	18	F#4	press
262.634	n/a	RESPONSE	        M6	1	04	E3	release
262.65	n/a	RESPONSE	        M6	1	19	G4	release
262.87	n/a	RESPONSE	        M6	1	18	F#4	release
262.898	n/a	RESPONSE	        M6	1	19	G4	press
262.956	n/a	RESPONSE	        M6	1	16	E4	press
262.97	n/a	RESPONSE	        M6	1	12	C4	release
263.425	n/a	RESPONSE	        M6	1	11	B3	release
263.454	n/a	RESPONSE	        M6	1	24	C5	press
263.469	n/a	RESPONSE	        M6	1	04	E3	press
263.527	n/a	RESPONSE	        M6	1	19	G4	release
263.54	n/a	RESPONSE	        M6	1	16	E4	release
263.665	n/a	RESPONSE	        M6	1	24	C5	release
263.68	n/a	RESPONSE	        M6	1	22	A#4	press
263.846	n/a	RESPONSE	        M6	1	22	A#4	release
264.206	n/a	RESPONSE	        M6	1	16	E4	press
264.221	n/a	RESPONSE	        M6	1	19	G4	press
264.456	n/a	RESPONSE	        M6	1	19	G4	release
264.651	n/a	RESPONSE	        M6	1	19	G4	press
264.654	n/a	RESPONSE	        M6	1	11	B3	press
264.735	n/a	RESPONSE	        M6	1	04	E3	release
264.75	n/a	RESPONSE	        M6	1	18	F#4	press
264.752	n/a	RESPONSE	        M6	1	16	E4	release
264.835	n/a	RESPONSE	        M6	1	19	G4	release
265.001	n/a	RESPONSE	        M6	1	19	G4	press
265.03	n/a	RESPONSE	        M6	1	18	F#4	release
265.06	n/a	RESPONSE	        M6	1	07	G3	press
265.105	n/a	RESPONSE	        M6	1	16	E4	press
265.228	n/a	RESPONSE	        M6	1	11	B3	release
265.467	n/a	RESPONSE	        M6	1	23	B4	press
265.482	n/a	RESPONSE	        M6	1	21	A4	press
265.497	n/a	RESPONSE	        M6	1	11	B3	press
265.5	n/a	RESPONSE	        M6	1	19	G4	release
265.542	n/a	RESPONSE	        M6	1	16	E4	release
265.558	n/a	RESPONSE	        M6	1	07	G3	release
265.614	n/a	RESPONSE	        M6	1	24	C5	press
265.682	n/a	RESPONSE	        M6	1	21	A4	release
265.876	n/a	RESPONSE	        M6	1	04	E3	press
265.891	n/a	RESPONSE	        M6	1	16	E4	press
265.975	n/a	RESPONSE	        M6	1	24	C5	release
266.074	n/a	RESPONSE	        M6	1	11	B3	release
266.201	n/a	RESPONSE	        M6	1	24	C5	press
266.282	n/a	RESPONSE	        M6	1	11	B3	press
266.325	n/a	RESPONSE	        M6	1	04	E3	release
266.327	n/a	RESPONSE	        M6	1	16	E4	release
266.368	n/a	RESPONSE	        M6	1	24	C5	release
266.686	n/a	RESPONSE	        M6	1	16	E4	press
266.715	n/a	RESPONSE	        M6	1	07	G3	press
266.798	n/a	RESPONSE	        M6	1	11	B3	release
267.089	n/a	RESPONSE	        M6	1	11	B3	press
267.175	n/a	RESPONSE	        M6	1	16	E4	release
267.202	n/a	RESPONSE	        M6	1	07	G3	release
267.489	7.758	FIXCROSS	n/a	n/a	n/a	n/a	n/a
267.492	n/a	RESPONSE	        M6	1	23	B4	release
267.521	n/a	RESPONSE	        M6	1	02	D3	press
267.536	n/a	RESPONSE	        M6	1	04	E3	press
267.538	n/a	RESPONSE	        M6	1	14	D4	press
267.885	n/a	RESPONSE	        M6	1	04	E3	release
267.914	n/a	RESPONSE	        M6	1	02	D3	release
267.995	n/a	RESPONSE	        M6	1	18	F#4	press
268.051	n/a	RESPONSE	        M6	1	14	D4	release
268.191	n/a	RESPONSE	        M6	1	17	F4	press
268.206	n/a	RESPONSE	        M6	1	18	F#4	release
268.372	n/a	RESPONSE	        M6	1	07	G3	press
268.382	n/a	RESPONSE	        M6	1	14	D4	press
268.398	n/a	RESPONSE	        M6	1	18	F#4	press
268.445	n/a	RESPONSE	        M6	1	11	B3	release
268.531	n/a	RESPONSE	        M6	1	18	F#4	release
268.777	n/a	RESPONSE	        M6	1	11	B3	press
268.78	n/a	RESPONSE	        M6	1	18	F#4	press
268.825	n/a	RESPONSE	        M6	1	14	D4	release
268.828	n/a	RESPONSE	        M6	1	17	F4	release
268.835	n/a	RESPONSE	        M6	1	07	G3	release
269.354	n/a	RESPONSE	        M6	1	18	F#4	release
269.67	n/a	RESPONSE	        M6	1	11	B3	release
270.008	n/a	RESPONSE	        M6	1	24	C5	press
270.224	n/a	RESPONSE	        M6	1	23	B4	press
270.247	n/a	RESPONSE	        M6	1	24	C5	release
270.428	n/a	RESPONSE	        M6	1	23	B4	release
275.247	6.325	CUE_LISTEN	        M6	2	n/a	n/a	n/a
281.572	7.758	FIXCROSS	n/a	n/a	n/a	n/a	n/a
284.806	n/a	RESPONSE	        M6	2	04	E3	press
287.264	n/a	RESPONSE	        M6	2	04	E3	release
289.33	6.317	CUE_PLAYBACK_BOTH_HANDS	        M6	2	n/a	n/a	n/a
289.837	n/a	RESPONSE	        M6	2	04	E3	press
289.851	n/a	RESPONSE	        M6	2	16	E4	press
290.548	n/a	RESPONSE	        M6	2	16	E4	release
290.617	n/a	RESPONSE	        M6	2	04	E3	release
290.822	n/a	RESPONSE	        M6	2	04	E3	press
290.846	n/a	RESPONSE	        M6	2	16	E4	press
290.867	n/a	RESPONSE	        M6	2	21	A4	press
291.206	n/a	RESPONSE	        M6	2	11	B3	press
291.291	n/a	RESPONSE	        M6	2	16	E4	release
291.336	n/a	RESPONSE	        M6	2	19	G4	press
291.367	n/a	RESPONSE	        M6	2	04	E3	release
291.586	n/a	RESPONSE	        M6	2	19	G4	release
291.797	n/a	RESPONSE	        M6	2	07	G3	press
291.86	n/a	RESPONSE	        M6	2	11	B3	release
291.966	n/a	RESPONSE	        M6	2	21	A4	release
292.135	n/a	RESPONSE	        M6	2	11	B3	press
292.274	n/a	RESPONSE	        M6	2	07	G3	release
292.508	n/a	RESPONSE	        M6	2	19	G4	press
292.511	n/a	RESPONSE	        M6	2	04	E3	press
292.514	n/a	RESPONSE	        M6	2	16	E4	press
292.76	n/a	RESPONSE	        M6	2	11	B3	release
292.914	n/a	RESPONSE	        M6	2	11	B3	press
292.941	n/a	RESPONSE	        M6	2	04	E3	release
293.011	n/a	RESPONSE	        M6	2	16	E4	release
293.218	n/a	RESPONSE	        M6	2	07	G3	press
293.261	n/a	RESPONSE	        M6	2	16	E4	press
293.358	n/a	RESPONSE	        M6	2	11	B3	release
293.566	n/a	RESPONSE	        M6	2	11	B3	press
293.625	n/a	RESPONSE	        M6	2	16	E4	release
293.871	n/a	RESPONSE	        M6	2	07	G3	release
293.927	n/a	RESPONSE	        M6	2	21	A4	press
293.984	n/a	RESPONSE	        M6	2	19	G4	release
294.012	n/a	RESPONSE	        M6	2	14	D4	press
294.072	n/a	RESPONSE	        M6	2	02	D3	press
294.1	n/a	RESPONSE	        M6	2	04	E3	press
294.238	n/a	RESPONSE	        M6	2	11	B3	release
294.418	n/a	RESPONSE	        M6	2	04	E3	release
294.421	n/a	RESPONSE	        M6	2	11	B3	press
294.448	n/a	RESPONSE	        M6	2	02	D3	release
294.587	n/a	RESPONSE	        M6	2	14	D4	release
294.657	n/a	RESPONSE	        M6	2	07	G3	press
294.741	n/a	RESPONSE	        M6	2	11	B3	release
294.99	n/a	RESPONSE	        M6	2	11	B3	press
295.075	n/a	RESPONSE	        M6	2	07	G3	release
295.118	n/a	RESPONSE	        M6	2	17	F4	press
295.175	n/a	RESPONSE	        M6	2	21	A4	release
295.646	n/a	RESPONSE	        M6	2	17	F4	release
295.647	7.758	FIXCROSS	n/a	n/a	n/a	n/a	n/a
295.826	n/a	RESPONSE	        M6	2	11	B3	release
303.405	6.317	CUE_LISTEN	        M2	1	n/a	n/a	n/a
309.722	7.758	FIXCROSS	n/a	n/a	n/a	n/a	n/a
317.48	6.317	CUE_PLAYBACK_RIGHT_HAND	        M2	1	n/a	n/a	n/a
317.984	n/a	RESPONSE	        M2	1	24	C5	press
318.378	n/a	RESPONSE	        M2	1	19	G4	press
318.395	n/a	RESPONSE	        M2	1	21	A4	press
318.457	n/a	RESPONSE	        M2	1	24	C5	release
318.54	n/a	RESPONSE	        M2	1	21	A4	release
318.55	n/a	RESPONSE	        M2	1	19	G4	release
318.941	n/a	RESPONSE	        M2	1	24	C5	press
319.301	n/a	RESPONSE	        M2	1	21	A4	press
319.4	n/a	RESPONSE	        M2	1	24	C5	release
319.5	n/a	RESPONSE	        M2	1	21	A4	release
319.725	n/a	RESPONSE	        M2	1	24	C5	press
320.075	n/a	RESPONSE	        M2	1	19	G4	press
320.272	n/a	RESPONSE	        M2	1	24	C5	release
320.297	n/a	RESPONSE	        M2	1	19	G4	release
320.424	n/a	RESPONSE	        M2	1	19	G4	press
320.747	n/a	RESPONSE	        M2	1	17	F4	press
320.831	n/a	RESPONSE	        M2	1	19	G4	release
321.11	n/a	RESPONSE	        M2	1	16	E4	press
321.186	n/a	RESPONSE	        M2	1	17	F4	release
321.435	n/a	RESPONSE	        M2	1	17	F4	press
321.496	n/a	RESPONSE	        M2	1	16	E4	release
321.747	n/a	RESPONSE	        M2	1	19	G4	press
321.828	n/a	RESPONSE	        M2	1	17	F4	release
322.384	n/a	RESPONSE	        M2	1	19	G4	release
322.424	n/a	RESPONSE	        M2	1	24	C5	press
322.768	n/a	RESPONSE	        M2	1	19	G4	press
322.838	n/a	RESPONSE	        M2	1	24	C5	release
322.992	n/a	RESPONSE	        M2	1	19	G4	release
323.117	n/a	RESPONSE	        M2	1	19	G4	press
323.435	n/a	RESPONSE	        M2	1	17	F4	press
323.535	n/a	RESPONSE	        M2	1	19	G4	release
323.77	n/a	RESPONSE	        M2	1	16	E4	press
323.797	7.758	FIXCROSS	n/a	n/a	n/a	n/a	n/a
323.812	n/a	RESPONSE	        M2	1	17	F4	release
324.087	n/a	RESPONSE	        M2	1	14	D4	press
324.185	n/a	RESPONSE	        M2	1	16	E4	release
324.42	n/a	RESPONSE	        M2	1	12	C4	press
324.464	n/a	RESPONSE	        M2	1	14	D4	release
328.538	n/a	RESPONSE	        M2	1	12	C4	release
331.555	6.333	CUE_LISTEN	        M2	2	n/a	n/a	n/a
337.741	n/a	RESPONSE	        M2	2	12	C4	press
337.889	7.758	FIXCROSS	n/a	n/a	n/a	n/a	n/a
338.047	n/a	RESPONSE	        M2	2	12	C4	release
345.647	6.317	CUE_PLAYBACK_RIGHT_HAND	        M2	2	n/a	n/a	n/a
346.061	n/a	RESPONSE	        M2	2	12	C4	press
346.434	n/a	RESPONSE	        M2	2	14	D4	press
346.503	n/a	RESPONSE	        M2	2	12	C4	release
346.807	n/a	RESPONSE	        M2	2	16	E4	press
346.865	n/a	RESPONSE	        M2	2	14	D4	release
347.153	n/a	RESPONSE	        M2	2	14	D4	press
347.21	n/a	RESPONSE	        M2	2	16	E4	release
347.5	n/a	RESPONSE	        M2	2	16	E4	press
347.572	n/a	RESPONSE	        M2	2	14	D4	release
347.846	n/a	RESPONSE	        M2	2	17	F4	press
347.905	n/a	RESPONSE	        M2	2	16	E4	release
348.207	n/a	RESPONSE	        M2	2	19	G4	press
348.25	n/a	RESPONSE	        M2	2	17	F4	release
348.858	n/a	RESPONSE	        M2	2	19	G4	release
348.89	n/a	RESPONSE	        M2	2	16	E4	press
349.22	n/a	RESPONSE	        M2	2	19	G4	press
349.287	n/a	RESPONSE	        M2	2	16	E4	release
349.431	n/a	RESPONSE	        M2	2	19	G4	release
349.59	n/a	RESPONSE	        M2	2	19	G4	press
349.9	n/a	RESPONSE	        M2	2	17	F4	press
349.975	n/a	RESPONSE	        M2	2	19	G4	release
350.23	n/a	RESPONSE	        M2	2	16	E4	press
350.305	n/a	RESPONSE	        M2	2	17	F4	release
350.547	n/a	RESPONSE	        M2	2	14	D4	press
350.75	n/a	RESPONSE	        M2	2	16	E4	release
350.904	n/a	RESPONSE	        M2	2	12	C4	press
350.932	n/a	RESPONSE	        M2	2	14	D4	release
351.964	7.758	FIXCROSS	n/a	n/a	n/a	n/a	n/a
359.722	6.308	CUE_LISTEN	        M8	1	n/a	n/a	n/a
361.808	n/a	RESPONSE	        M8	1	12	C4	release
366.03	7.758	FIXCROSS	n/a	n/a	n/a	n/a	n/a
373.789	6.325	CUE_PLAYBACK_RIGHT_HAND	        M8	1	n/a	n/a	n/a
374.268	n/a	RESPONSE	        M8	1	16	E4	press
374.572	n/a	RESPONSE	        M8	1	19	G4	press
374.684	n/a	RESPONSE	        M8	1	16	E4	release
374.946	n/a	RESPONSE	        M8	1	21	A4	press
374.961	n/a	RESPONSE	        M8	1	19	G4	release
375.338	n/a	RESPONSE	        M8	1	21	A4	release
375.56	n/a	RESPONSE	        M8	1	16	E4	press
375.795	n/a	RESPONSE	        M8	1	19	G4	press
375.878	n/a	RESPONSE	        M8	1	16	E4	release
376.117	n/a	RESPONSE	        M8	1	23	B4	press
376.2	n/a	RESPONSE	        M8	1	19	G4	release
376.394	n/a	RESPONSE	        M8	1	23	B4	release
376.628	n/a	RESPONSE	        M8	1	23	B4	press
377.826	n/a	RESPONSE	        M8	1	21	A4	press
377.978	n/a	RESPONSE	        M8	1	23	B4	release
378.215	n/a	RESPONSE	        M8	1	21	A4	release
378.406	n/a	RESPONSE	        M8	1	16	E4	press
378.592	n/a	RESPONSE	        M8	1	19	G4	press
378.668	n/a	RESPONSE	        M8	1	16	E4	release
378.857	n/a	RESPONSE	        M8	1	23	B4	press
378.891	n/a	RESPONSE	        M8	1	19	G4	release
379.094	n/a	RESPONSE	        M8	1	23	B4	release
379.312	n/a	RESPONSE	        M8	1	23	B4	press
379.751	n/a	RESPONSE	        M8	1	18	F#4	press
379.787	n/a	RESPONSE	        M8	1	23	B4	release
380.114	7.758	FIXCROSS	n/a	n/a	n/a	n/a	n/a
380.19	n/a	RESPONSE	        M8	1	23	B4	press
380.236	n/a	RESPONSE	        M8	1	18	F#4	release
380.725	n/a	RESPONSE	        M8	1	23	B4	release
387.872	6.317	CUE_LISTEN	        M8	2	n/a	n/a	n/a
394.189	7.758	FIXCROSS	n/a	n/a	n/a	n/a	n/a
401.947	6.317	CUE_PLAYBACK_RIGHT_HAND	        M8	2	n/a	n/a	n/a
402.435	n/a	RESPONSE	        M8	2	16	E4	press
402.726	n/a	RESPONSE	        M8	2	19	G4	press
402.782	n/a	RESPONSE	        M8	2	16	E4	release
403.085	n/a	RESPONSE	        M8	2	23	B4	press
403.127	n/a	RESPONSE	        M8	2	19	G4	release
403.39	n/a	RESPONSE	        M8	2	23	B4	release
403.721	n/a	RESPONSE	        M8	2	23	B4	press
404.26	n/a	RESPONSE	        M8	2	18	F#4	press
404.276	n/a	RESPONSE	        M8	2	23	B4	release
404.814	n/a	RESPONSE	        M8	2	18	F#4	release
404.816	n/a	RESPONSE	        M8	2	21	A4	press
405.456	n/a	RESPONSE	        M8	2	21	A4	release
406.198	n/a	RESPONSE	        M8	2	23	B4	press
406.887	n/a	RESPONSE	        M8	2	21	A4	press
406.971	n/a	RESPONSE	        M8	2	23	B4	release
407.22	n/a	RESPONSE	        M8	2	19	G4	press
407.32	n/a	RESPONSE	        M8	2	21	A4	release
407.527	n/a	RESPONSE	        M8	2	18	F#4	press
407.555	n/a	RESPONSE	        M8	2	19	G4	release
407.765	n/a	RESPONSE	        M8	2	19	G4	press
407.846	n/a	RESPONSE	        M8	2	18	F#4	release
408.082	n/a	RESPONSE	        M8	2	16	E4	press
408.138	n/a	RESPONSE	        M8	2	19	G4	release
408.264	7.758	FIXCROSS	n/a	n/a	n/a	n/a	n/a
416.022	6.325	CUE_LISTEN	        M4	1	n/a	n/a	n/a
418.071	n/a	RESPONSE	        M4	1	16	E4	release
422.347	7.758	FIXCROSS	n/a	n/a	n/a	n/a	n/a
430.106	6.325	CUE_PLAYBACK_BOTH_HANDS	        M4	1	n/a	n/a	n/a
430.49	n/a	RESPONSE	        M4	1	12	C4	press
430.506	n/a	RESPONSE	        M4	1	09	A3	press
430.516	n/a	RESPONSE	        M4	1	05	F3	press
430.997	n/a	RESPONSE	        M4	1	17	F4	press
431.375	n/a	RESPONSE	        M4	1	21	A4	press
431.435	n/a	RESPONSE	        M4	1	17	F4	release
431.723	n/a	RESPONSE	        M4	1	19	G4	press
432.068	n/a	RESPONSE	        M4	1	17	F4	press
432.083	n/a	RESPONSE	        M4	1	21	A4	release
432.195	n/a	RESPONSE	        M4	1	19	G4	release
432.526	n/a	RESPONSE	        M4	1	16	E4	press
432.61	n/a	RESPONSE	        M4	1	17	F4	release
432.845	n/a	RESPONSE	        M4	1	17	F4	press
432.916	n/a	RESPONSE	        M4	1	16	E4	release
433.301	n/a	RESPONSE	        M4	1	09	A3	release
433.316	n/a	RESPONSE	        M4	1	05	F3	release
433.32	n/a	RESPONSE	        M4	1	12	C4	release
433.333	n/a	RESPONSE	        M4	1	17	F4	release
433.526	n/a	RESPONSE	        M4	1	12	C4	press
433.528	n/a	RESPONSE	        M4	1	09	A3	press
433.531	n/a	RESPONSE	        M4	1	05	F3	press
433.86	n/a	RESPONSE	        M4	1	17	F4	press
434.165	n/a	RESPONSE	        M4	1	21	A4	press
434.235	n/a	RESPONSE	        M4	1	17	F4	release
434.483	n/a	RESPONSE	        M4	1	19	G4	press
434.774	n/a	RESPONSE	        M4	1	17	F4	press
434.899	n/a	RESPONSE	        M4	1	21	A4	release
434.955	n/a	RESPONSE	        M4	1	19	G4	release
435.067	n/a	RESPONSE	        M4	1	16	E4	press
435.166	n/a	RESPONSE	        M4	1	17	F4	release
435.348	n/a	RESPONSE	        M4	1	17	F4	press
435.432	n/a	RESPONSE	        M4	1	16	E4	release
435.942	n/a	RESPONSE	        M4	1	09	A3	release
435.945	n/a	RESPONSE	        M4	1	12	C4	release
435.958	n/a	RESPONSE	        M4	1	17	F4	release
436.015	n/a	RESPONSE	        M4	1	05	F3	release
436.431	7.758	FIXCROSS	n/a	n/a	n/a	n/a	n/a
444.189	6.317	CUE_LISTEN	        M4	2	n/a	n/a	n/a
450.506	7.758	FIXCROSS	n/a	n/a	n/a	n/a	n/a
458.264	6.317	CUE_PLAYBACK_BOTH_HANDS	        M4	2	n/a	n/a	n/a
458.784	n/a	RESPONSE	        M4	2	12	C4	press
458.786	n/a	RESPONSE	        M4	2	09	A3	press
458.808	n/a	RESPONSE	        M4	2	05	F3	press
459.276	n/a	RESPONSE	        M4	2	17	F4	press
459.808	n/a	RESPONSE	        M4	2	17	F4	release
459.833	n/a	RESPONSE	        M4	2	05	F3	release
459.878	n/a	RESPONSE	        M4	2	12	C4	release
459.94	n/a	RESPONSE	        M4	2	09	A3	release
460.545	n/a	RESPONSE	        M4	2	12	C4	press
460.561	n/a	RESPONSE	        M4	2	09	A3	press
460.577	n/a	RESPONSE	        M4	2	05	F3	press
461.096	n/a	RESPONSE	        M4	2	17	F4	press
461.533	n/a	RESPONSE	        M4	2	05	F3	release
461.586	n/a	RESPONSE	        M4	2	17	F4	release
461.7	n/a	RESPONSE	        M4	2	12	C4	release
461.757	n/a	RESPONSE	        M4	2	12	C4	press
461.771	n/a	RESPONSE	        M4	2	05	F3	press
462.171	n/a	RESPONSE	        M4	2	17	F4	press
462.596	n/a	RESPONSE	        M4	2	19	G4	press
462.666	n/a	RESPONSE	        M4	2	17	F4	release
463.121	n/a	RESPONSE	        M4	2	19	G4	release
463.163	n/a	RESPONSE	        M4	2	05	F3	release
463.316	n/a	RESPONSE	        M4	2	09	A3	release
463.496	n/a	RESPONSE	        M4	2	09	A3	press
463.513	n/a	RESPONSE	        M4	2	05	F3	press
464.133	n/a	RESPONSE	        M4	2	17	F4	press
464.581	7.758	FIXCROSS	n/a	n/a	n/a	n/a	n/a
464.753	n/a	RESPONSE	        M4	2	21	A4	press
464.851	n/a	RESPONSE	        M4	2	17	F4	release
465.253	n/a	RESPONSE	        M4	2	21	A4	release
465.522	n/a	RESPONSE	        M4	2	24	C5	press
465.702	n/a	RESPONSE	        M4	2	05	F3	release
465.783	n/a	RESPONSE	        M4	2	09	A3	release
466.091	n/a	RESPONSE	        M4	2	07	G3	press
466.117	n/a	RESPONSE	        M4	2	04	E3	press
466.132	n/a	RESPONSE	        M4	2	22	A#4	press
466.587	n/a	RESPONSE	        M4	2	21	A4	press
466.726	n/a	RESPONSE	        M4	2	24	C5	release
466.975	n/a	RESPONSE	        M4	2	19	G4	press
467.058	n/a	RESPONSE	        M4	2	22	A#4	release
467.183	n/a	RESPONSE	        M4	2	21	A4	release
467.433	n/a	RESPONSE	        M4	2	19	G4	release
467.64	n/a	RESPONSE	        M4	2	07	G3	release
467.902	n/a	RESPONSE	        M4	2	07	G3	press
468.372	n/a	RESPONSE	        M4	2	16	E4	press
469.05	n/a	RESPONSE	        M4	2	20	G#4	press
469.171	n/a	RESPONSE	        M4	2	20	G#4	release
469.51	n/a	RESPONSE	        M4	2	16	E4	release
469.572	n/a	RESPONSE	        M4	2	12	C4	release
469.58	n/a	RESPONSE	        M4	2	07	G3	release
469.748	n/a	RESPONSE	        M4	2	12	C4	press
469.77	n/a	RESPONSE	        M4	2	07	G3	press
470.21	n/a	RESPONSE	        M4	2	16	E4	press
470.773	n/a	RESPONSE	        M4	2	19	G4	press
471.487	n/a	RESPONSE	        M4	2	16	E4	release
471.491	n/a	RESPONSE	        M4	2	20	G#4	press
471.716	n/a	RESPONSE	        M4	2	19	G4	release
471.786	n/a	RESPONSE	        M4	2	07	G3	release
471.847	n/a	RESPONSE	        M4	2	04	E3	release
472.339	6.317	CUE_LISTEN	        M3	1	n/a	n/a	n/a
472.615	n/a	RESPONSE	        M3	1	19	G4	press
472.617	n/a	RESPONSE	        M3	1	11	B3	press
472.631	n/a	RESPONSE	        M3	1	05	F3	press
472.77	n/a	RESPONSE	        M3	1	20	G#4	release
473.005	n/a	RESPONSE	        M3	1	17	F4	press
473.171	n/a	RESPONSE	        M3	1	19	G4	release
473.31	n/a	RESPONSE	        M3	1	14	D4	press
473.325	n/a	RESPONSE	        M3	1	17	F4	release
473.477	n/a	RESPONSE	        M3	1	11	B3	release
473.561	n/a	RESPONSE	        M3	1	05	F3	release
473.617	n/a	RESPONSE	        M3	1	12	C4	release
474.665	n/a	RESPONSE	        M3	1	14	D4	release
478.656	7.758	FIXCROSS	n/a	n/a	n/a	n/a	n/a
486.414	6.325	CUE_PLAYBACK_RIGHT_HAND	        M3	1	n/a	n/a	n/a
486.832	n/a	RESPONSE	        M3	1	12	C4	press
487.163	n/a	RESPONSE	        M3	1	14	D4	press
487.247	n/a	RESPONSE	        M3	1	12	C4	release
487.523	n/a	RESPONSE	        M3	1	16	E4	press
487.607	n/a	RESPONSE	        M3	1	14	D4	release
487.897	n/a	RESPONSE	        M3	1	12	C4	press
487.927	n/a	RESPONSE	        M3	1	16	E4	release
488.121	n/a	RESPONSE	        M3	1	12	C4	release
488.246	n/a	RESPONSE	        M3	1	12	C4	press
488.577	n/a	RESPONSE	        M3	1	14	D4	press
488.621	n/a	RESPONSE	        M3	1	12	C4	release
488.915	n/a	RESPONSE	        M3	1	16	E4	press
488.993	n/a	RESPONSE	        M3	1	14	D4	release
489.292	n/a	RESPONSE	        M3	1	12	C4	press
489.346	n/a	RESPONSE	        M3	1	16	E4	release
489.625	n/a	RESPONSE	        M3	1	16	E4	press
489.633	n/a	RESPONSE	        M3	1	12	C4	release
489.95	n/a	RESPONSE	        M3	1	17	F4	press
489.991	n/a	RESPONSE	        M3	1	16	E4	release
490.258	n/a	RESPONSE	        M3	1	19	G4	press
490.31	n/a	RESPONSE	        M3	1	17	F4	release
490.716	n/a	RESPONSE	        M3	1	19	G4	release
490.927	n/a	RESPONSE	        M3	1	16	E4	press
491.266	n/a	RESPONSE	        M3	1	17	F4	press
491.328	n/a	RESPONSE	        M3	1	16	E4	release
491.691	n/a	RESPONSE	        M3	1	19	G4	press
491.757	n/a	RESPONSE	        M3	1	17	F4	release
492.246	n/a	RESPONSE	        M3	1	19	G4	release
492.739	7.759	FIXCROSS	n/a	n/a	n/a	n/a	n/a
500.498	6.317	CUE_LISTEN	        M3	2	n/a	n/a	n/a
506.106	n/a	RESPONSE	        M3	2	17	F4	press
506.355	n/a	RESPONSE	        M3	2	17	F4	release
506.814	7.767	FIXCROSS	n/a	n/a	n/a	n/a	n/a
514.581	6.308	CUE_PLAYBACK_RIGHT_HAND	        M3	2	n/a	n/a	n/a
515.042	n/a	RESPONSE	        M3	2	19	G4	press
515.28	n/a	RESPONSE	        M3	2	21	A4	press
515.325	n/a	RESPONSE	        M3	2	19	G4	release
515.491	n/a	RESPONSE	        M3	2	19	G4	press
515.561	n/a	RESPONSE	        M3	2	21	A4	release
515.7	n/a	RESPONSE	        M3	2	17	F4	press
515.797	n/a	RESPONSE	        M3	2	19	G4	release
515.936	n/a	RESPONSE	        M3	2	16	E4	press
516.033	n/a	RESPONSE	        M3	2	17	F4	release
516.352	n/a	RESPONSE	        M3	2	12	C4	press
516.408	n/a	RESPONSE	        M3	2	16	E4	release
516.767	n/a	RESPONSE	        M3	2	17	F4	press
516.796	n/a	RESPONSE	        M3	2	12	C4	release
516.976	n/a	RESPONSE	        M3	2	19	G4	press
517.02	n/a	RESPONSE	        M3	2	17	F4	release
517.185	n/a	RESPONSE	        M3	2	19	G4	release
517.531	n/a	RESPONSE	        M3	2	19	G4	press
517.723	n/a	RESPONSE	        M3	2	21	A4	press
517.766	n/a	RESPONSE	        M3	2	19	G4	release
517.932	n/a	RESPONSE	        M3	2	19	G4	press
517.975	n/a	RESPONSE	        M3	2	21	A4	release
518.142	n/a	RESPONSE	        M3	2	17	F4	press
518.212	n/a	RESPONSE	        M3	2	19	G4	release
518.353	n/a	RESPONSE	        M3	2	16	E4	press
518.492	n/a	RESPONSE	        M3	2	17	F4	release
518.793	n/a	RESPONSE	        M3	2	12	C4	press
518.82	n/a	RESPONSE	        M3	2	16	E4	release
519.008	n/a	RESPONSE	        M3	2	12	C4	release
519.21	n/a	RESPONSE	        M3	2	12	C4	press
519.511	n/a	RESPONSE	        M3	2	12	C4	release
519.678	n/a	RESPONSE	        M3	2	09	A3	press
519.928	n/a	RESPONSE	        M3	2	09	A3	release
520.111	n/a	RESPONSE	        M3	2	12	C4	press
520.667	n/a	RESPONSE	        M3	2	12	C4	release
520.871	n/a	RESPONSE	        M3	2	12	C4	press
520.889	7.758	FIXCROSS	n/a	n/a	n/a	n/a	n/a
521.068	n/a	RESPONSE	        M3	2	12	C4	release
521.278	n/a	RESPONSE	        M3	2	07	G3	press
521.55	n/a	RESPONSE	        M3	2	07	G3	release
521.723	n/a	RESPONSE	        M3	2	12	C4	press
523.24	n/a	RESPONSE	        M3	2	12	C4	release
528.648	6.325	CUE_LISTEN	        M5	1	n/a	n/a	n/a
534.972	7.758	FIXCROSS	n/a	n/a	n/a	n/a	n/a
542.731	6.317	CUE_PLAYBACK_BOTH_HANDS	        M5	1	n/a	n/a	n/a
542.736	n/a	RESPONSE	        M5	1	00	C3	press
542.985	n/a	RESPONSE	        M5	1	00	C3	release
543.758	n/a	RESPONSE	        M5	1	07	G3	press
543.785	n/a	RESPONSE	        M5	1	21	A4	press
544.047	n/a	RESPONSE	        M5	1	21	A4	release
544.203	n/a	RESPONSE	        M5	1	07	G3	release
546.382	n/a	RESPONSE	        M5	1	09	A3	press
546.385	n/a	RESPONSE	        M5	1	21	A4	press
546.605	n/a	RESPONSE	        M5	1	21	A4	release
546.688	n/a	RESPONSE	        M5	1	11	B3	press
546.703	n/a	RESPONSE	        M5	1	21	A4	press
546.746	n/a	RESPONSE	        M5	1	09	A3	release
546.898	n/a	RESPONSE	        M5	1	21	A4	release
547.038	n/a	RESPONSE	        M5	1	07	G3	press
547.067	n/a	RESPONSE	        M5	1	21	A4	press
547.096	n/a	RESPONSE	        M5	1	11	B3	release
547.193	n/a	RESPONSE	        M5	1	21	A4	release
547.238	n/a	RESPONSE	        M5	1	07	G3	release
547.911	n/a	RESPONSE	        M5	1	07	G3	press
547.927	n/a	RESPONSE	        M5	1	21	A4	press
548.135	n/a	RESPONSE	        M5	1	21	A4	release
548.247	n/a	RESPONSE	        M5	1	21	A4	press
548.261	n/a	RESPONSE	        M5	1	11	B3	press
548.265	n/a	RESPONSE	        M5	1	09	A3	press
548.318	n/a	RESPONSE	        M5	1	07	G3	release
548.441	n/a	RESPONSE	        M5	1	21	A4	release
548.495	n/a	RESPONSE	        M5	1	09	A3	release
548.503	n/a	RESPONSE	        M5	1	11	B3	release
549.048	7.758	FIXCROSS	n/a	n/a	n/a	n/a	n/a
556.806	6.325	CUE_LISTEN	        M5	2	n/a	n/a	n/a
563.131	7.758	FIXCROSS	n/a	n/a	n/a	n/a	n/a
570.889	6.317	CUE_PLAYBACK_BOTH_HANDS	        M5	2	n/a	n/a	n/a
571.283	n/a	RESPONSE	        M5	2	07	G3	press
571.337	n/a	RESPONSE	        M5	2	22	A#4	press
571.536	n/a	RESPONSE	        M5	2	22	A#4	release
571.737	n/a	RESPONSE	        M5	2	11	B3	press
571.748	n/a	RESPONSE	        M5	2	07	G3	release
571.755	n/a	RESPONSE	        M5	2	22	A#4	press
571.982	n/a	RESPONSE	        M5	2	22	A#4	release
572.19	n/a	RESPONSE	        M5	2	11	B3	release
572.204	n/a	RESPONSE	        M5	2	22	A#4	press
572.207	n/a	RESPONSE	        M5	2	05	F3	press
572.537	n/a	RESPONSE	        M5	2	05	F3	release
572.567	n/a	RESPONSE	        M5	2	22	A#4	release
573.021	n/a	RESPONSE	        M5	2	09	A3	press
573.063	n/a	RESPONSE	        M5	2	22	A#4	press
573.518	n/a	RESPONSE	        M5	2	09	A3	release
573.521	n/a	RESPONSE	        M5	2	22	A#4	release
573.837	n/a	RESPONSE	        M5	2	09	A3	press
573.852	n/a	RESPONSE	        M5	2	22	A#4	press
574.06	n/a	RESPONSE	        M5	2	22	A#4	release
574.186	n/a	RESPONSE	        M5	2	22	A#4	press
574.202	n/a	RESPONSE	        M5	2	12	C4	press
574.286	n/a	RESPONSE	        M5	2	09	A3	release
574.523	n/a	RESPONSE	        M5	2	21	A4	press
574.536	n/a	RESPONSE	        M5	2	07	G3	press
574.565	n/a	RESPONSE	        M5	2	22	A#4	release
574.593	n/a	RESPONSE	        M5	2	12	C4	release
574.787	n/a	RESPONSE	        M5	2	21	A4	release
574.843	n/a	RESPONSE	        M5	2	21	A4	press
574.858	n/a	RESPONSE	        M5	2	12	C4	press
574.89	n/a	RESPONSE	        M5	2	07	G3	release
575.012	n/a	RESPONSE	        M5	2	21	A4	release
575.167	n/a	RESPONSE	        M5	2	21	A4	press
575.196	n/a	RESPONSE	        M5	2	05	F3	press
575.238	n/a	RESPONSE	        M5	2	12	C4	release
575.49	n/a	RESPONSE	        M5	2	21	A4	release
575.643	n/a	RESPONSE	        M5	2	05	F3	release
577.102	n/a	RESPONSE	        M5	2	02	D3	press
577.206	7.758	FIXCROSS	n/a	n/a	n/a	n/a	n/a
577.268	n/a	RESPONSE	        M5	2	02	D3	release
577.847	n/a	RESPONSE	        M5	2	09	A3	press
578.126	n/a	RESPONSE	        M5	2	09	A3	release
578.803	n/a	RESPONSE	        M5	2	11	B3	press
579.053	n/a	RESPONSE	        M5	2	11	B3	release
584.964	6.317	CUE_LISTEN	        M1	1	n/a	n/a	n/a
591.281	7.758	FIXCROSS	n/a	n/a	n/a	n/a	n/a
599.039	6.317	CUE_PLAYBACK_BOTH_HANDS	        M1	1	n/a	n/a	n/a
599.563	n/a	RESPONSE	        M1	1	07	G3	press
599.566	n/a	RESPONSE	        M1	1	19	G4	press
599.581	n/a	RESPONSE	        M1	1	04	E3	press
599.583	n/a	RESPONSE	        M1	1	00	C3	press
600.003	n/a	RESPONSE	        M1	1	16	E4	press
600.258	n/a	RESPONSE	        M1	1	16	E4	release
600.432	n/a	RESPONSE	        M1	1	16	E4	press
600.468	n/a	RESPONSE	        M1	1	19	G4	release
600.545	n/a	RESPONSE	        M1	1	00	C3	release
600.621	n/a	RESPONSE	        M1	1	04	E3	release
600.757	n/a	RESPONSE	        M1	1	16	E4	release
600.856	n/a	RESPONSE	        M1	1	17	F4	press
600.858	n/a	RESPONSE	        M1	1	05	F3	press
600.873	n/a	RESPONSE	        M1	1	02	D3	press
601.34	n/a	RESPONSE	        M1	1	14	D4	press
601.528	n/a	RESPONSE	        M1	1	14	D4	release
601.77	n/a	RESPONSE	        M1	1	14	D4	press
601.816	n/a	RESPONSE	        M1	1	17	F4	release
601.937	n/a	RESPONSE	        M1	1	02	D3	release
601.948	n/a	RESPONSE	        M1	1	07	G3	release
602.012	n/a	RESPONSE	        M1	1	05	F3	release
602.056	n/a	RESPONSE	        M1	1	14	D4	release
602.153	n/a	RESPONSE	        M1	1	07	G3	press
602.182	n/a	RESPONSE	        M1	1	04	E3	press
602.197	n/a	RESPONSE	        M1	1	12	C4	press
602.253	n/a	RESPONSE	        M1	1	00	C3	press
602.422	n/a	RESPONSE	        M1	1	16	E4	press
602.503	n/a	RESPONSE	        M1	1	12	C4	release
602.601	n/a	RESPONSE	        M1	1	19	G4	press
602.657	n/a	RESPONSE	        M1	1	16	E4	release
603.195	n/a	RESPONSE	        M1	1	04	E3	release
603.21	n/a	RESPONSE	        M1	1	00	C3	release
603.252	n/a	RESPONSE	        M1	1	19	G4	release
605.356	7.758	FIXCROSS	n/a	n/a	n/a	n/a	n/a
613.114	6.325	CUE_LISTEN	        M1	2	n/a	n/a	n/a
619.439	7.758	FIXCROSS	n/a	n/a	n/a	n/a	n/a
627.198	6.317	CUE_PLAYBACK_BOTH_HANDS	        M1	2	n/a	n/a	n/a
627.945	n/a	RESPONSE	        M1	2	04	E3	press
627.947	n/a	RESPONSE	        M1	2	19	G4	press
627.961	n/a	RESPONSE	        M1	2	00	C3	press
628.421	n/a	RESPONSE	        M1	2	16	E4	press
628.671	n/a	RESPONSE	        M1	2	16	E4	release
628.874	n/a	RESPONSE	        M1	2	16	E4	press
628.948	n/a	RESPONSE	        M1	2	19	G4	release
629.003	n/a	RESPONSE	        M1	2	00	C3	release
629.056	n/a	RESPONSE	        M1	2	04	E3	release
629.192	n/a	RESPONSE	        M1	2	16	E4	release
629.291	n/a	RESPONSE	        M1	2	05	F3	press
629.293	n/a	RESPONSE	        M1	2	17	F4	press
629.296	n/a	RESPONSE	        M1	2	02	D3	press
629.768	n/a	RESPONSE	        M1	2	14	D4	press
629.963	n/a	RESPONSE	        M1	2	14	D4	release
630.193	n/a	RESPONSE	        M1	2	14	D4	press
630.308	n/a	RESPONSE	        M1	2	17	F4	release
630.368	n/a	RESPONSE	        M1	2	02	D3	release
630.475	n/a	RESPONSE	        M1	2	14	D4	release
630.498	n/a	RESPONSE	        M1	2	05	F3	release
630.582	n/a	RESPONSE	        M1	2	00	C3	press
630.591	n/a	RESPONSE	        M1	2	04	E3	press
630.607	n/a	RESPONSE	        M1	2	12	C4	press
630.803	n/a	RESPONSE	        M1	2	16	E4	press
630.894	n/a	RESPONSE	        M1	2	12	C4	release
631.055	n/a	RESPONSE	        M1	2	12	C4	press
631.094	n/a	RESPONSE	        M1	2	16	E4	release
632.378	n/a	RESPONSE	        M1	2	00	C3	release
632.434	n/a	RESPONSE	        M1	2	12	C4	release
632.656	n/a	RESPONSE	        M1	2	04	E3	release
633.514	7.758	FIXCROSS	n/a	n/a	n/a	n/a	n/a
635.938	n/a	RESPONSE	        M1	2	07	G3	release
641.273	6.317	CUE_LISTEN	        M7	1	n/a	n/a	n/a
647.589	7.758	FIXCROSS	n/a	n/a	n/a	n/a	n/a
655.348	6.325	CUE_PLAYBACK_RIGHT_HAND	        M7	1	n/a	n/a	n/a
655.993	n/a	RESPONSE	        M7	1	22	A#4	press
656.48	n/a	RESPONSE	        M7	1	21	A4	press
656.863	n/a	RESPONSE	        M7	1	22	A#4	release
656.933	n/a	RESPONSE	        M7	1	19	G4	press
657.044	n/a	RESPONSE	        M7	1	21	A4	release
657.376	n/a	RESPONSE	        M7	1	21	A4	press
657.473	n/a	RESPONSE	        M7	1	19	G4	release
657.914	n/a	RESPONSE	        M7	1	16	E4	press
657.957	n/a	RESPONSE	        M7	1	14	D4	press
658.013	n/a	RESPONSE	        M7	1	14	D4	release
658.042	n/a	RESPONSE	        M7	1	21	A4	release
658.21	n/a	RESPONSE	        M7	1	16	E4	release
658.627	n/a	RESPONSE	        M7	1	22	A#4	press
659.001	n/a	RESPONSE	        M7	1	21	A4	press
659.144	n/a	RESPONSE	        M7	1	22	A#4	release
659.371	n/a	RESPONSE	        M7	1	19	G4	press
659.447	n/a	RESPONSE	        M7	1	21	A4	release
659.661	n/a	RESPONSE	        M7	1	21	A4	press
659.765	n/a	RESPONSE	        M7	1	19	G4	release
660.347	n/a	RESPONSE	        M7	1	14	D4	press
660.506	n/a	RESPONSE	        M7	1	21	A4	release
660.792	n/a	RESPONSE	        M7	1	14	D4	release
661.034	n/a	RESPONSE	        M7	1	14	D4	press
661.643	n/a	RESPONSE	        M7	1	14	D4	release
661.646	n/a	RESPONSE	        M7	1	19	G4	press
661.652	n/a	RESPONSE	        M7	1	17	F4	press
661.673	7.758	FIXCROSS	n/a	n/a	n/a	n/a	n/a
661.893	n/a	RESPONSE	        M7	1	17	F4	release
662.467	n/a	RESPONSE	        M7	1	09	A3	press
662.674	n/a	RESPONSE	        M7	1	09	A3	release
663.047	n/a	RESPONSE	        M7	1	07	G3	press
663.078	n/a	RESPONSE	        M7	1	09	A3	press
663.201	n/a	RESPONSE	        M7	1	19	G4	release
663.284	n/a	RESPONSE	        M7	1	09	A3	release
663.287	n/a	RESPONSE	        M7	1	07	G3	release
663.59	n/a	RESPONSE	        M7	1	07	G3	press
664.033	n/a	RESPONSE	        M7	1	09	A3	press
664.06	n/a	RESPONSE	        M7	1	07	G3	release
664.378	n/a	RESPONSE	        M7	1	10	A#3	press
664.71	n/a	RESPONSE	        M7	1	09	A3	release
664.752	n/a	RESPONSE	        M7	1	12	C4	press
664.754	n/a	RESPONSE	        M7	1	10	A#3	release
665.252	n/a	RESPONSE	        M7	1	14	D4	press
665.393	n/a	RESPONSE	        M7	1	12	C4	release
669.431	6.317	CUE_LISTEN	        M7	2	n/a	n/a	n/a
672.854	n/a	RESPONSE	        M7	2	14	D4	release
675.748	7.759	FIXCROSS	n/a	n/a	n/a	n/a	n/a
683.506	6.325	CUE_PLAYBACK_RIGHT_HAND	        M7	2	n/a	n/a	n/a
684.15	n/a	RESPONSE	        M7	2	17	F4	press
684.632	n/a	RESPONSE	        M7	2	19	G4	press
684.676	n/a	RESPONSE	        M7	2	17	F4	release
684.882	n/a	RESPONSE	        M7	2	17	F4	press
684.966	n/a	RESPONSE	        M7	2	19	G4	release
685.19	n/a	RESPONSE	        M7	2	15	D#4	press
685.358	n/a	RESPONSE	        M7	2	17	F4	release
685.456	n/a	RESPONSE	        M7	2	14	D4	press
685.54	n/a	RESPONSE	        M7	2	15	D#4	release
685.816	n/a	RESPONSE	        M7	2	15	D#4	press
685.886	n/a	RESPONSE	        M7	2	14	D4	release
686.316	n/a	RESPONSE	        M7	2	17	F4	press
686.426	n/a	RESPONSE	        M7	2	15	D#4	release
686.662	n/a	RESPONSE	        M7	2	15	D#4	press
686.953	n/a	RESPONSE	        M7	2	14	D4	press
686.98	n/a	RESPONSE	        M7	2	17	F4	release
687.272	n/a	RESPONSE	        M7	2	15	D#4	release
687.298	n/a	RESPONSE	        M7	2	12	C4	press
687.342	n/a	RESPONSE	        M7	2	14	D4	release
687.644	n/a	RESPONSE	        M7	2	14	D4	press
687.73	n/a	RESPONSE	        M7	2	12	C4	release
688.883	n/a	RESPONSE	        M7	2	09	A3	press
689.237	n/a	RESPONSE	        M7	2	09	A3	release
689.406	n/a	RESPONSE	        M7	2	14	D4	release
689.578	n/a	RESPONSE	        M7	2	14	D4	press
689.831	7.758	FIXCROSS	n/a	n/a	n/a	n/a	n/a
690.212	n/a	RESPONSE	        M7	2	17	F4	press
690.236	n/a	RESPONSE	        M7	2	19	G4	press
690.26	n/a	RESPONSE	        M7	2	14	D4	release
690.39	n/a	RESPONSE	        M7	2	19	G4	release
691.102	n/a	RESPONSE	        M7	2	17	F4	release
692.917	n/a	RESPONSE	        M7	2	12	C4	press
693.592	n/a	RESPONSE	        M7	2	12	C4	release
693.69	n/a	RESPONSE	        M7	2	10	A#3	press
695.732	n/a	RESPONSE	        M7	2	10	A#3	release
697.59	6.317	CUE_LISTEN	        M4	1	n/a	n/a	n/a
703.906	7.758	FIXCROSS	n/a	n/a	n/a	n/a	n/a
711.665	6.317	CUE_PLAYBACK_RIGHT_HAND	        M4	1	n/a	n/a	n/a
712.381	n/a	RESPONSE	        M4	1	12	C4	press
712.74	n/a	RESPONSE	        M4	1	16	E4	press
712.784	n/a	RESPONSE	        M4	1	12	C4	release
713.224	n/a	RESPONSE	        M4	1	16	E4	release
713.776	n/a	RESPONSE	        M4	1	12	C4	press
714.438	n/a	RESPONSE	        M4	1	14	D4	press
714.604	n/a	RESPONSE	        M4	1	12	C4	release
714.73	n/a	RESPONSE	        M4	1	14	D4	release
714.992	n/a	RESPONSE	        M4	1	12	C4	press
715.397	n/a	RESPONSE	        M4	1	16	E4	press
715.441	n/a	RESPONSE	        M4	1	12	C4	release
715.771	n/a	RESPONSE	        M4	1	19	G4	press
715.854	n/a	RESPONSE	        M4	1	16	E4	release
716.091	n/a	RESPONSE	        M4	1	17	F4	press
716.203	n/a	RESPONSE	        M4	1	19	G4	release
716.382	n/a	RESPONSE	        M4	1	16	E4	press
716.452	n/a	RESPONSE	        M4	1	17	F4	release
716.673	n/a	RESPONSE	        M4	1	17	F4	press
716.757	n/a	RESPONSE	        M4	1	16	E4	release
717.102	n/a	RESPONSE	        M4	1	17	F4	release
717.981	7.758	FIXCROSS	n/a	n/a	n/a	n/a	n/a
718.574	n/a	RESPONSE	        M4	1	12	C4	press
718.898	n/a	RESPONSE	        M4	1	16	E4	press
718.937	n/a	RESPONSE	        M4	1	12	C4	release
719.262	n/a	RESPONSE	        M4	1	19	G4	press
719.3	n/a	RESPONSE	        M4	1	16	E4	release
719.482	n/a	RESPONSE	        M4	1	19	G4	release
720.064	n/a	RESPONSE	        M4	1	12	C4	press
720.336	n/a	RESPONSE	        M4	1	14	D4	press
720.411	n/a	RESPONSE	        M4	1	12	C4	release
720.698	n/a	RESPONSE	        M4	1	17	F4	press
720.721	n/a	RESPONSE	        M4	1	14	D4	release
721.217	n/a	RESPONSE	        M4	1	17	F4	release
725.74	6.325	CUE_LISTEN	        M4	2	n/a	n/a	n/a
732.065	7.758	FIXCROSS	n/a	n/a	n/a	n/a	n/a
739.823	6.317	CUE_PLAYBACK_RIGHT_HAND	        M4	2	n/a	n/a	n/a
740.262	n/a	RESPONSE	        M4	2	12	C4	press
740.733	n/a	RESPONSE	        M4	2	17	F4	press
740.884	n/a	RESPONSE	        M4	2	12	C4	release
741.523	n/a	RESPONSE	        M4	2	19	G4	press
741.638	n/a	RESPONSE	        M4	2	17	F4	release
742.314	n/a	RESPONSE	        M4	2	23	B4	press
742.357	n/a	RESPONSE	        M4	2	19	G4	release
742.908	n/a	RESPONSE	        M4	2	20	G#4	press
743.377	n/a	RESPONSE	        M4	2	20	G#4	release
743.832	n/a	RESPONSE	        M4	2	23	B4	release
743.929	n/a	RESPONSE	        M4	2	22	A#4	press
744.346	n/a	RESPONSE	        M4	2	19	G4	press
744.376	n/a	RESPONSE	        M4	2	21	A4	press
744.498	n/a	RESPONSE	        M4	2	22	A#4	release
744.596	n/a	RESPONSE	        M4	2	21	A4	release
744.872	n/a	RESPONSE	        M4	2	19	G4	release
745.318	n/a	RESPONSE	        M4	2	12	C4	press
745.817	n/a	RESPONSE	        M4	2	16	E4	press
745.926	n/a	RESPONSE	        M4	2	12	C4	release
746.14	7.758	FIXCROSS	n/a	n/a	n/a	n/a	n/a
746.794	n/a	RESPONSE	        M4	2	19	G4	press
747.002	n/a	RESPONSE	        M4	2	16	E4	release
747.527	n/a	RESPONSE	        M4	2	20	G#4	press
747.596	n/a	RESPONSE	        M4	2	19	G4	release
747.996	n/a	RESPONSE	        M4	2	19	G4	press
748.082	n/a	RESPONSE	        M4	2	20	G#4	release
748.381	n/a	RESPONSE	        M4	2	17	F4	press
748.517	n/a	RESPONSE	        M4	2	19	G4	release
748.798	n/a	RESPONSE	        M4	2	17	F4	release
749.3	n/a	RESPONSE	        M4	2	12	C4	press
749.466	n/a	RESPONSE	        M4	2	12	C4	release
749.61	n/a	RESPONSE	        M4	2	12	C4	press
750.157	n/a	RESPONSE	        M4	2	16	E4	press
750.208	n/a	RESPONSE	        M4	2	12	C4	release
750.683	n/a	RESPONSE	        M4	2	19	G4	press
750.818	n/a	RESPONSE	        M4	2	16	E4	release
751.202	n/a	RESPONSE	        M4	2	17	F4	press
751.353	n/a	RESPONSE	        M4	2	19	G4	release
751.58	n/a	RESPONSE	        M4	2	17	F4	release
752.054	n/a	RESPONSE	        M4	2	12	C4	press
752.374	n/a	RESPONSE	        M4	2	16	E4	press
752.443	n/a	RESPONSE	        M4	2	12	C4	release
752.692	n/a	RESPONSE	        M4	2	19	G4	press
752.844	n/a	RESPONSE	        M4	2	16	E4	release
753.632	n/a	RESPONSE	        M4	2	20	G#4	press
753.743	n/a	RESPONSE	        M4	2	19	G4	release
753.898	6.317	CUE_LISTEN	        M2	1	n/a	n/a	n/a
754.116	n/a	RESPONSE	        M2	1	20	G#4	release
760.215	7.758	FIXCROSS	n/a	n/a	n/a	n/a	n/a
767.973	6.325	CUE_PLAYBACK_BOTH_HANDS	        M2	1	n/a	n/a	n/a
768.542	n/a	RESPONSE	        M2	1	00	C3	press
768.544	n/a	RESPONSE	        M2	1	24	C5	press
768.553	n/a	RESPONSE	        M2	1	07	G3	press
768.937	n/a	RESPONSE	        M2	1	19	G4	press
769.027	n/a	RESPONSE	        M2	1	24	C5	release
769.118	n/a	RESPONSE	        M2	1	00	C3	release
769.157	n/a	RESPONSE	        M2	1	19	G4	release
769.293	n/a	RESPONSE	        M2	1	00	C3	press
769.302	n/a	RESPONSE	        M2	1	19	G4	press
769.651	n/a	RESPONSE	        M2	1	17	F4	press
769.739	n/a	RESPONSE	        M2	1	00	C3	release
769.756	n/a	RESPONSE	        M2	1	07	G3	release
769.767	n/a	RESPONSE	        M2	1	19	G4	release
769.961	n/a	RESPONSE	        M2	1	07	G3	press
769.984	n/a	RESPONSE	        M2	1	00	C3	press
770.001	n/a	RESPONSE	        M2	1	16	E4	press
770.091	n/a	RESPONSE	        M2	1	17	F4	release
770.332	n/a	RESPONSE	        M2	1	17	F4	press
770.376	n/a	RESPONSE	        M2	1	00	C3	release
770.422	n/a	RESPONSE	        M2	1	07	G3	release
770.431	n/a	RESPONSE	        M2	1	16	E4	release
770.642	n/a	RESPONSE	        M2	1	19	G4	press
770.652	n/a	RESPONSE	        M2	1	07	G3	press
770.689	n/a	RESPONSE	        M2	1	00	C3	press
770.758	n/a	RESPONSE	        M2	1	17	F4	release
771.164	n/a	RESPONSE	        M2	1	00	C3	release
771.226	n/a	RESPONSE	        M2	1	07	G3	release
771.249	n/a	RESPONSE	        M2	1	19	G4	release
771.348	n/a	RESPONSE	        M2	1	07	G3	press
771.372	n/a	RESPONSE	        M2	1	00	C3	press
771.374	n/a	RESPONSE	        M2	1	24	C5	press
771.73	n/a	RESPONSE	        M2	1	19	G4	press
771.836	n/a	RESPONSE	        M2	1	00	C3	release
771.842	n/a	RESPONSE	        M2	1	24	C5	release
771.858	n/a	RESPONSE	        M2	1	07	G3	release
771.942	n/a	RESPONSE	        M2	1	19	G4	release
772.036	n/a	RESPONSE	        M2	1	07	G3	press
772.051	n/a	RESPONSE	        M2	1	19	G4	press
772.054	n/a	RESPONSE	        M2	1	00	C3	press
772.398	n/a	RESPONSE	        M2	1	17	F4	press
772.413	n/a	RESPONSE	        M2	1	00	C3	release
772.442	n/a	RESPONSE	        M2	1	07	G3	release
772.526	n/a	RESPONSE	        M2	1	19	G4	release
772.692	n/a	RESPONSE	        M2	1	07	G3	press
772.707	n/a	RESPONSE	        M2	1	00	C3	press
772.722	n/a	RESPONSE	        M2	1	16	E4	press
772.778	n/a	RESPONSE	        M2	1	17	F4	release
773.041	n/a	RESPONSE	        M2	1	14	D4	press
773.111	n/a	RESPONSE	        M2	1	00	C3	release
773.141	n/a	RESPONSE	        M2	1	07	G3	release
773.223	n/a	RESPONSE	        M2	1	16	E4	release
773.334	n/a	RESPONSE	        M2	1	07	G3	press
773.363	n/a	RESPONSE	        M2	1	00	C3	press
773.366	n/a	RESPONSE	        M2	1	12	C4	press
773.572	n/a	RESPONSE	        M2	1	14	D4	release
774.298	7.758	FIXCROSS	n/a	n/a	n/a	n/a	n/a
775.837	n/a	RESPONSE	        M2	1	00	C3	release
782.056	6.317	CUE_LISTEN	        M2	2	n/a	n/a	n/a
788.373	7.758	FIXCROSS	n/a	n/a	n/a	n/a	n/a
794.471	n/a	RESPONSE	        M2	2	12	C4	release
796.131	6.317	CUE_PLAYBACK_BOTH_HANDS	        M2	2	n/a	n/a	n/a
796.611	n/a	RESPONSE	        M2	2	07	G3	release
797.259	n/a	RESPONSE	        M2	2	07	G3	press
797.273	n/a	RESPONSE	        M2	2	00	C3	press
797.276	n/a	RESPONSE	        M2	2	12	C4	press
797.608	n/a	RESPONSE	        M2	2	14	D4	press
797.731	n/a	RESPONSE	        M2	2	12	C4	release
797.733	n/a	RESPONSE	        M2	2	00	C3	release
797.774	n/a	RESPONSE	        M2	2	07	G3	release
797.957	n/a	RESPONSE	        M2	2	16	E4	press
797.983	n/a	RESPONSE	        M2	2	07	G3	press
797.998	n/a	RESPONSE	        M2	2	00	C3	press
798.016	n/a	RESPONSE	        M2	2	14	D4	release
798.291	n/a	RESPONSE	        M2	2	14	D4	press
798.374	n/a	RESPONSE	        M2	2	16	E4	release
798.377	n/a	RESPONSE	        M2	2	00	C3	release
798.393	n/a	RESPONSE	        M2	2	07	G3	release
798.622	n/a	RESPONSE	        M2	2	16	E4	press
798.637	n/a	RESPONSE	        M2	2	07	G3	press
798.639	n/a	RESPONSE	        M2	2	00	C3	press
798.698	n/a	RESPONSE	        M2	2	14	D4	release
798.992	n/a	RESPONSE	        M2	2	17	F4	press
799.017	n/a	RESPONSE	        M2	2	00	C3	release
799.027	n/a	RESPONSE	        M2	2	07	G3	release
799.131	n/a	RESPONSE	        M2	2	16	E4	release
799.328	n/a	RESPONSE	        M2	2	07	G3	press
799.331	n/a	RESPONSE	        M2	2	00	C3	press
799.344	n/a	RESPONSE	        M2	2	19	G4	press
799.421	n/a	RESPONSE	        M2	2	17	F4	release
799.844	n/a	RESPONSE	        M2	2	07	G3	release
799.851	n/a	RESPONSE	        M2	2	00	C3	release
799.906	n/a	RESPONSE	        M2	2	19	G4	release
800.042	n/a	RESPONSE	        M2	2	16	E4	press
800.058	n/a	RESPONSE	        M2	2	07	G3	press
800.061	n/a	RESPONSE	        M2	2	00	C3	press
800.468	n/a	RESPONSE	        M2	2	19	G4	press
800.5	n/a	RESPONSE	        M2	2	00	C3	release
800.516	n/a	RESPONSE	        M2	2	07	G3	release
800.554	n/a	RESPONSE	        M2	2	16	E4	release
800.691	n/a	RESPONSE	        M2	2	19	G4	release
800.782	n/a	RESPONSE	        M2	2	07	G3	press
800.784	n/a	RESPONSE	        M2	2	00	C3	press
800.814	n/a	RESPONSE	        M2	2	19	G4	press
801.153	n/a	RESPONSE	        M2	2	00	C3	release
801.169	n/a	RESPONSE	        M2	2	07	G3	release
801.172	n/a	RESPONSE	        M2	2	17	F4	press
801.286	n/a	RESPONSE	        M2	2	19	G4	release
801.481	n/a	RESPONSE	        M2	2	07	G3	press
801.486	n/a	RESPONSE	        M2	2	16	E4	press
801.492	n/a	RESPONSE	        M2	2	00	C3	press
801.621	n/a	RESPONSE	        M2	2	17	F4	release
801.824	n/a	RESPONSE	        M2	2	14	D4	press
801.871	n/a	RESPONSE	        M2	2	07	G3	release
801.873	n/a	RESPONSE	        M2	2	00	C3	release
802.054	n/a	RESPONSE	        M2	2	16	E4	release
802.153	n/a	RESPONSE	        M2	2	07	G3	press
802.156	n/a	RESPONSE	        M2	2	00	C3	press
802.158	n/a	RESPONSE	        M2	2	12	C4	press
802.253	n/a	RESPONSE	        M2	2	14	D4	release
802.448	7.758	FIXCROSS	n/a	n/a	n/a	n/a	n/a
803.519	n/a	RESPONSE	        M2	2	12	C4	release
804.842	n/a	RESPONSE	        M2	2	00	C3	release
810.206	6.325	CUE_LISTEN	        M8	1	n/a	n/a	n/a
811.934	n/a	RESPONSE	        M8	1	07	G3	release
816.531	7.758	FIXCROSS	n/a	n/a	n/a	n/a	n/a
824.29	6.317	CUE_PLAYBACK_BOTH_HANDS	        M8	1	n/a	n/a	n/a
824.658	n/a	RESPONSE	        M8	1	16	E4	press
824.907	n/a	RESPONSE	        M8	1	19	G4	press
825.004	n/a	RESPONSE	        M8	1	16	E4	release
825.201	n/a	RESPONSE	        M8	1	23	B4	press
825.271	n/a	RESPONSE	        M8	1	19	G4	release
825.522	n/a	RESPONSE	        M8	1	23	B4	release
825.757	n/a	RESPONSE	        M8	1	23	B4	press
826.268	n/a	RESPONSE	        M8	1	09	A3	press
826.283	n/a	RESPONSE	        M8	1	18	F#4	press
826.339	n/a	RESPONSE	        M8	1	23	B4	release
826.507	n/a	RESPONSE	        M8	1	12	C4	press
826.631	n/a	RESPONSE	        M8	1	09	A3	release
826.797	n/a	RESPONSE	        M8	1	21	A4	press
826.812	n/a	RESPONSE	        M8	1	16	E4	press
826.898	n/a	RESPONSE	        M8	1	18	F#4	release
826.939	n/a	RESPONSE	        M8	1	12	C4	release
827.119	n/a	RESPONSE	        M8	1	16	E4	release
827.357	n/a	RESPONSE	        M8	1	16	E4	press
827.851	n/a	RESPONSE	        M8	1	23	B4	press
827.853	n/a	RESPONSE	        M8	1	15	D#4	press
827.908	n/a	RESPONSE	        M8	1	21	A4	release
827.966	n/a	RESPONSE	        M8	1	16	E4	release
828.379	n/a	RESPONSE	        M8	1	11	B3	press
828.437	n/a	RESPONSE	        M8	1	15	D#4	release
828.581	n/a	RESPONSE	        M8	1	21	A4	press
828.658	n/a	RESPONSE	        M8	1	23	B4	release
828.884	n/a	RESPONSE	        M8	1	19	G4	press
828.967	n/a	RESPONSE	        M8	1	21	A4	release
829.171	n/a	RESPONSE	        M8	1	18	F#4	press
829.238	n/a	RESPONSE	        M8	1	19	G4	release
829.442	n/a	RESPONSE	        M8	1	19	G4	press
829.489	n/a	RESPONSE	        M8	1	18	F#4	release
829.927	n/a	RESPONSE	        M8	1	19	G4	release
830.072	n/a	RESPONSE	        M8	1	11	B3	release
830.606	7.758	FIXCROSS	n/a	n/a	n/a	n/a	n/a
830.796	n/a	RESPONSE	        M8	1	16	E4	press
831.172	n/a	RESPONSE	        M8	1	16	E4	release
838.365	6.317	CUE_LISTEN	        M8	2	n/a	n/a	n/a
844.682	7.758	FIXCROSS	n/a	n/a	n/a	n/a	n/a
852.44	6.325	CUE_PLAYBACK_BOTH_HANDS	        M8	2	n/a	n/a	n/a
852.821	n/a	RESPONSE	        M8	2	16	E4	press
853.083	n/a	RESPONSE	        M8	2	19	G4	press
853.181	n/a	RESPONSE	        M8	2	16	E4	release
853.402	n/a	RESPONSE	        M8	2	23	B4	press
853.447	n/a	RESPONSE	        M8	2	19	G4	release
853.818	n/a	RESPONSE	        M8	2	23	B4	release
853.972	n/a	RESPONSE	        M8	2	23	B4	press
854.496	n/a	RESPONSE	        M8	2	09	A3	press
854.511	n/a	RESPONSE	        M8	2	18	F#4	press
854.567	n/a	RESPONSE	        M8	2	23	B4	release
854.761	n/a	RESPONSE	        M8	2	12	C4	press
854.886	n/a	RESPONSE	        M8	2	09	A3	release
855.053	n/a	RESPONSE	        M8	2	21	A4	press
855.068	n/a	RESPONSE	        M8	2	16	E4	press
855.112	n/a	RESPONSE	        M8	2	18	F#4	release
855.267	n/a	RESPONSE	        M8	2	12	C4	release
855.419	n/a	RESPONSE	        M8	2	16	E4	release
855.613	n/a	RESPONSE	        M8	2	16	E4	press
856.138	n/a	RESPONSE	        M8	2	15	D#4	press
856.182	n/a	RESPONSE	        M8	2	23	B4	press
856.264	n/a	RESPONSE	        M8	2	16	E4	release
856.279	n/a	RESPONSE	        M8	2	21	A4	release
856.737	n/a	RESPONSE	        M8	2	11	B3	press
856.804	n/a	RESPONSE	        M8	2	15	D#4	release
856.984	n/a	RESPONSE	        M8	2	21	A4	press
857.096	n/a	RESPONSE	        M8	2	23	B4	release
857.277	n/a	RESPONSE	        M8	2	19	G4	press
857.387	n/a	RESPONSE	        M8	2	21	A4	release
857.567	n/a	RESPONSE	        M8	2	18	F#4	press
857.637	n/a	RESPONSE	        M8	2	19	G4	release
857.886	n/a	RESPONSE	        M8	2	19	G4	press
857.942	n/a	RESPONSE	        M8	2	18	F#4	release
858.219	n/a	RESPONSE	        M8	2	12	C4	press
858.303	n/a	RESPONSE	        M8	2	11	B3	release
858.564	n/a	RESPONSE	        M8	2	16	E4	press
858.624	n/a	RESPONSE	        M8	2	11	B3	press
858.701	n/a	RESPONSE	        M8	2	19	G4	release
858.765	7.758	FIXCROSS	n/a	n/a	n/a	n/a	n/a
859.152	n/a	RESPONSE	        M8	2	07	G3	press
859.183	n/a	RESPONSE	        M8	2	09	A3	press
859.229	n/a	RESPONSE	        M8	2	12	C4	release
859.278	n/a	RESPONSE	        M8	2	11	B3	release
859.556	n/a	RESPONSE	        M8	2	09	A3	release
859.897	n/a	RESPONSE	        M8	2	07	G3	release
860.031	n/a	RESPONSE	        M8	2	05	F3	press
860.456	n/a	RESPONSE	        M8	2	05	F3	release
860.562	n/a	RESPONSE	        M8	2	04	E3	press
861.396	n/a	RESPONSE	        M8	2	04	E3	release
866.523	6.317	CUE_LISTEN	        M6	1	n/a	n/a	n/a
869.661	n/a	RESPONSE	        M6	1	16	E4	release
872.84	7.758	FIXCROSS	n/a	n/a	n/a	n/a	n/a
880.598	6.317	CUE_PLAYBACK_RIGHT_HAND	        M6	1	n/a	n/a	n/a
881.041	n/a	RESPONSE	        M6	1	19	G4	press
881.529	n/a	RESPONSE	        M6	1	19	G4	release
881.732	n/a	RESPONSE	        M6	1	19	G4	press
881.958	n/a	RESPONSE	        M6	1	18	F#4	press
881.996	n/a	RESPONSE	        M6	1	19	G4	release
882.137	n/a	RESPONSE	        M6	1	19	G4	press
882.164	n/a	RESPONSE	        M6	1	18	F#4	release
882.509	n/a	RESPONSE	        M6	1	23	B4	press
882.593	n/a	RESPONSE	        M6	1	19	G4	release
882.704	n/a	RESPONSE	        M6	1	24	C5	press
882.761	n/a	RESPONSE	        M6	1	23	B4	release
882.888	n/a	RESPONSE	        M6	1	23	B4	press
882.943	n/a	RESPONSE	        M6	1	24	C5	release
884.554	n/a	RESPONSE	        M6	1	23	B4	release
884.941	n/a	RESPONSE	        M6	1	18	F#4	press
885.123	n/a	RESPONSE	        M6	1	16	E4	press
885.166	n/a	RESPONSE	        M6	1	18	F#4	release
885.362	n/a	RESPONSE	        M6	1	18	F#4	press
885.391	n/a	RESPONSE	        M6	1	16	E4	release
886.094	n/a	RESPONSE	        M6	1	19	G4	press
886.151	n/a	RESPONSE	        M6	1	18	F#4	release
886.372	n/a	RESPONSE	        M6	1	21	A4	press
886.414	n/a	RESPONSE	        M6	1	19	G4	release
886.581	n/a	RESPONSE	        M6	1	19	G4	press
886.637	n/a	RESPONSE	        M6	1	21	A4	release
886.915	7.758	FIXCROSS	n/a	n/a	n/a	n/a	n/a
888.478	n/a	RESPONSE	        M6	1	19	G4	release
894.673	6.325	CUE_LISTEN	        M6	2	n/a	n/a	n/a
900.998	7.758	FIXCROSS	n/a	n/a	n/a	n/a	n/a
908.757	191.161	CUE_PLAYBACK_RIGHT_HAND	        M6	2	n/a	n/a	n/a
909.209	n/a	RESPONSE	        M6	2	23	B4	press
910.121	n/a	RESPONSE	        M6	2	21	A4	press
910.184	n/a	RESPONSE	        M6	2	23	B4	release
911.766	n/a	RESPONSE	        M6	2	23	B4	press
911.789	n/a	RESPONSE	        M6	2	21	A4	release
912.832	n/a	RESPONSE	        M6	2	21	A4	press
912.916	n/a	RESPONSE	        M6	2	23	B4	release
913.256	n/a	FIXCROSS	n/a	n/a	n/a	n/a	n/a
914.596	n/a	RESPONSE	        M6	2	21	A4	release
