onset	duration	trial_type	melody_number	melody_part	key	sound	action
0.0	14.083	CUE_START	n/a	n/a	n/a	n/a	n/a
14.084	7.76	FIXCROSS	n/a	n/a	n/a	n/a	n/a
21.843	6.316	CUE_LISTEN	M1	1	n/a	n/a	n/a
28.159	7.758	FIXCROSS	n/a	n/a	n/a	n/a	n/a
35.917	6.325	CUE_PLAYBACK_RIGHT_HAND	M1	1	n/a	n/a	n/a
37.005	n/a	RESPONSE	M1	1	19	G4	press
37.552	n/a	RESPONSE	M1	1	16	E4	press
37.671	n/a	RESPONSE	M1	1	19	G4	release
37.842	n/a	RESPONSE	M1	1	16	E4	release
38.102	n/a	RESPONSE	M1	1	16	E4	press
38.515	n/a	RESPONSE	M1	1	16	E4	release
38.562	n/a	RESPONSE	M1	1	17	F4	press
39.132	n/a	RESPONSE	M1	1	14	D4	press
39.21	n/a	RESPONSE	M1	1	17	F4	release
39.365	n/a	RESPONSE	M1	1	14	D4	release
39.607	n/a	RESPONSE	M1	1	14	D4	press
40.092	n/a	RESPONSE	M1	1	12	C4	press
40.104	n/a	RESPONSE	M1	1	14	D4	release
40.345	n/a	RESPONSE	M1	1	16	E4	press
40.426	n/a	RESPONSE	M1	1	12	C4	release
40.587	n/a	RESPONSE	M1	1	19	G4	press
40.778	n/a	RESPONSE	M1	1	16	E4	release
41.19	n/a	RESPONSE	M1	1	19	G4	release
42.242	7.758	FIXCROSS	n/a	n/a	n/a	n/a	n/a
50.001	6.317	CUE_LISTEN	        M1	2	n/a	n/a	n/a
56.317	7.758	FIXCROSS	n/a	n/a	n/a	n/a	n/a
64.076	6.317	CUE_PLAYBACK_RIGHT_HAND	        M1	2	n/a	n/a	n/a
64.921	n/a	RESPONSE	        M1	2	19	G4	press
65.442	n/a	RESPONSE	        M1	2	16	E4	press
65.516	n/a	RESPONSE	        M1	2	19	G4	release
65.785	n/a	RESPONSE	        M1	2	16	E4	release
65.956	n/a	RESPONSE	        M1	2	16	E4	press
66.391	n/a	RESPONSE	        M1	2	16	E4	release
66.413	n/a	RESPONSE	        M1	2	17	F4	press
66.922	n/a	RESPONSE	        M1	2	14	D4	press
67.012	n/a	RESPONSE	        M1	2	17	F4	release
67.151	n/a	RESPONSE	        M1	2	14	D4	release
67.398	n/a	RESPONSE	        M1	2	14	D4	press
67.822	n/a	RESPONSE	        M1	2	12	C4	press
67.855	n/a	RESPONSE	        M1	2	14	D4	release
68.07	n/a	RESPONSE	        M1	2	16	E4	press
68.167	n/a	RESPONSE	        M1	2	12	C4	release
68.3	n/a	RESPONSE	        M1	2	12	C4	press
68.385	n/a	RESPONSE	        M1	2	16	E4	release
68.792	n/a	RESPONSE	        M1	2	12	C4	release
70.392	7.758	FIXCROSS	n/a	n/a	n/a	n/a	n/a
78.151	6.325	CUE_LISTEN	        M7	1	n/a	n/a	n/a
84.476	7.758	FIXCROSS	n/a	n/a	n/a	n/a	n/a
92.234	6.317	CUE_PLAYBACK_BOTH_HANDS	        M7	1	n/a	n/a	n/a
97.022	n/a	RESPONSE	        M7	1	04	E3	press
97.066	n/a	RESPONSE	        M7	1	22	A#4	press
97.718	n/a	RESPONSE	        M7	1	21	A4	press
97.903	n/a	RESPONSE	        M7	1	22	A#4	release
98.537	n/a	RESPONSE	        M7	1	19	G4	press
98.551	7.758	FIXCROSS	n/a	n/a	n/a	n/a	n/a
98.636	n/a	RESPONSE	        M7	1	21	A4	release
99.03	n/a	RESPONSE	        M7	1	21	A4	press
99.13	n/a	RESPONSE	        M7	1	19	G4	release
100.95	n/a	RESPONSE	        M7	1	17	F4	press
100.991	n/a	RESPONSE	        M7	1	02	D3	press
101.082	n/a	RESPONSE	        M7	1	21	A4	release
101.103	n/a	RESPONSE	        M7	1	04	E3	release
101.285	n/a	RESPONSE	        M7	1	02	D3	release
101.396	n/a	RESPONSE	        M7	1	17	F4	release
106.309	6.317	CUE_LISTEN	        M7	2	n/a	n/a	n/a
112.626	7.758	FIXCROSS	n/a	n/a	n/a	n/a	n/a
120.384	6.325	CUE_PLAYBACK_BOTH_HANDS	        M7	2	n/a	n/a	n/a
126.709	7.758	FIXCROSS	n/a	n/a	n/a	n/a	n/a
134.468	6.317	CUE_LISTEN	        M5	1	n/a	n/a	n/a
140.784	7.758	FIXCROSS	n/a	n/a	n/a	n/a	n/a
148.542	6.325	CUE_PLAYBACK_RIGHT_HAND	        M5	1	n/a	n/a	n/a
149.417	n/a	RESPONSE	        M5	1	19	G4	press
149.602	n/a	RESPONSE	        M5	1	19	G4	release
149.697	n/a	RESPONSE	        M5	1	19	G4	press
149.891	n/a	RESPONSE	        M5	1	19	G4	release
150.027	n/a	RESPONSE	        M5	1	19	G4	press
150.508	n/a	RESPONSE	        M5	1	19	G4	release
150.632	n/a	RESPONSE	        M5	1	19	G4	press
150.851	n/a	RESPONSE	        M5	1	19	G4	release
150.952	n/a	RESPONSE	        M5	1	19	G4	press
151.136	n/a	RESPONSE	        M5	1	19	G4	release
151.255	n/a	RESPONSE	        M5	1	19	G4	press
151.716	n/a	RESPONSE	        M5	1	19	G4	release
152.028	n/a	RESPONSE	        M5	1	19	G4	press
152.45	n/a	RESPONSE	        M5	1	16	E4	press
152.561	n/a	RESPONSE	        M5	1	19	G4	release
152.772	n/a	RESPONSE	        M5	1	16	E4	release
152.823	n/a	RESPONSE	        M5	1	19	G4	press
153.065	n/a	RESPONSE	        M5	1	19	G4	release
154.868	7.758	FIXCROSS	n/a	n/a	n/a	n/a	n/a
162.626	6.317	CUE_LISTEN	        M5	2	n/a	n/a	n/a
168.942	7.758	FIXCROSS	n/a	n/a	n/a	n/a	n/a
176.701	6.317	CUE_PLAYBACK_RIGHT_HAND	        M5	2	n/a	n/a	n/a
177.417	n/a	RESPONSE	        M5	2	22	A#4	press
177.626	n/a	RESPONSE	        M5	2	22	A#4	release
177.78	n/a	RESPONSE	        M5	2	22	A#4	press
177.976	n/a	RESPONSE	        M5	2	22	A#4	release
178.127	n/a	RESPONSE	        M5	2	22	A#4	press
178.316	n/a	RESPONSE	        M5	2	22	A#4	release
178.467	n/a	RESPONSE	        M5	2	22	A#4	press
178.628	n/a	RESPONSE	        M5	2	22	A#4	release
178.763	n/a	RESPONSE	        M5	2	22	A#4	press
179.852	n/a	RESPONSE	        M5	2	22	A#4	release
179.973	n/a	RESPONSE	        M5	2	21	A4	press
180.205	n/a	RESPONSE	        M5	2	21	A4	release
180.376	n/a	RESPONSE	        M5	2	21	A4	press
180.557	n/a	RESPONSE	        M5	2	21	A4	release
180.698	n/a	RESPONSE	        M5	2	21	A4	press
181.07	n/a	RESPONSE	        M5	2	19	G4	press
181.101	n/a	RESPONSE	        M5	2	21	A4	release
181.275	n/a	RESPONSE	        M5	2	19	G4	release
181.453	n/a	RESPONSE	        M5	2	19	G4	press
181.715	n/a	RESPONSE	        M5	2	19	G4	release
181.787	n/a	RESPONSE	        M5	2	21	A4	press
182.14	n/a	RESPONSE	        M5	2	17	F4	press
182.16	n/a	RESPONSE	        M5	2	16	E4	press
182.241	n/a	RESPONSE	        M5	2	21	A4	release
182.342	n/a	RESPONSE	        M5	2	16	E4	release
183.018	7.758	FIXCROSS	n/a	n/a	n/a	n/a	n/a
183.353	n/a	RESPONSE	        M5	2	17	F4	release
190.776	6.325	CUE_LISTEN	        M3	1	n/a	n/a	n/a
197.101	7.758	FIXCROSS	n/a	n/a	n/a	n/a	n/a
204.859	6.317	CUE_PLAYBACK_BOTH_HANDS	        M3	1	n/a	n/a	n/a
205.861	n/a	RESPONSE	        M3	1	00	C3	press
205.885	n/a	RESPONSE	        M3	1	12	C4	press
206.323	n/a	RESPONSE	        M3	1	14	D4	press
206.378	n/a	RESPONSE	        M3	1	07	G3	press
206.467	n/a	RESPONSE	        M3	1	12	C4	release
206.643	n/a	RESPONSE	        M3	1	00	C3	release
206.747	n/a	RESPONSE	        M3	1	16	E4	press
206.79	n/a	RESPONSE	        M3	1	04	E3	press
206.823	n/a	RESPONSE	        M3	1	14	D4	release
206.96	n/a	RESPONSE	        M3	1	07	G3	release
207.222	n/a	RESPONSE	        M3	1	07	G3	press
207.231	n/a	RESPONSE	        M3	1	12	C4	press
207.281	n/a	RESPONSE	        M3	1	16	E4	release
207.391	n/a	RESPONSE	        M3	1	04	E3	release
207.475	n/a	RESPONSE	        M3	1	12	C4	release
207.522	n/a	RESPONSE	        M3	1	07	G3	release
207.646	n/a	RESPONSE	        M3	1	00	C3	press
207.672	n/a	RESPONSE	        M3	1	12	C4	press
208.077	n/a	RESPONSE	        M3	1	14	D4	press
208.09	n/a	RESPONSE	        M3	1	07	G3	press
208.191	n/a	RESPONSE	        M3	1	12	C4	release
208.226	n/a	RESPONSE	        M3	1	00	C3	release
208.475	n/a	RESPONSE	        M3	1	16	E4	press
208.481	n/a	RESPONSE	        M3	1	04	E3	press
208.528	n/a	RESPONSE	        M3	1	14	D4	release
208.572	n/a	RESPONSE	        M3	1	07	G3	release
208.9	n/a	RESPONSE	        M3	1	07	G3	press
208.915	n/a	RESPONSE	        M3	1	12	C4	press
208.94	n/a	RESPONSE	        M3	1	16	E4	release
209.031	n/a	RESPONSE	        M3	1	04	E3	release
209.146	n/a	RESPONSE	        M3	1	12	C4	release
209.182	n/a	RESPONSE	        M3	1	07	G3	release
209.296	n/a	RESPONSE	        M3	1	00	C3	press
209.313	n/a	RESPONSE	        M3	1	16	E4	press
209.706	n/a	RESPONSE	        M3	1	17	F4	press
209.708	n/a	RESPONSE	        M3	1	07	G3	press
209.788	n/a	RESPONSE	        M3	1	16	E4	release
209.842	n/a	RESPONSE	        M3	1	00	C3	release
210.075	n/a	RESPONSE	        M3	1	19	G4	press
210.096	n/a	RESPONSE	        M3	1	04	E3	press
210.138	n/a	RESPONSE	        M3	1	17	F4	release
210.168	n/a	RESPONSE	        M3	1	07	G3	release
210.5	n/a	RESPONSE	        M3	1	07	G3	press
210.721	n/a	RESPONSE	        M3	1	04	E3	release
210.783	n/a	RESPONSE	        M3	1	19	G4	release
210.803	n/a	RESPONSE	        M3	1	07	G3	release
210.925	n/a	RESPONSE	        M3	1	16	E4	press
210.927	n/a	RESPONSE	        M3	1	00	C3	press
211.176	7.758	FIXCROSS	n/a	n/a	n/a	n/a	n/a
211.318	n/a	RESPONSE	        M3	1	17	F4	press
211.338	n/a	RESPONSE	        M3	1	16	E4	release
211.35	n/a	RESPONSE	        M3	1	07	G3	press
211.482	n/a	RESPONSE	        M3	1	00	C3	release
211.672	n/a	RESPONSE	        M3	1	19	G4	press
211.713	n/a	RESPONSE	        M3	1	17	F4	release
211.725	n/a	RESPONSE	        M3	1	04	E3	press
211.847	n/a	RESPONSE	        M3	1	07	G3	release
212.128	n/a	RESPONSE	        M3	1	07	G3	press
212.38	n/a	RESPONSE	        M3	1	04	E3	release
212.601	n/a	RESPONSE	        M3	1	19	G4	release
212.703	n/a	RESPONSE	        M3	1	07	G3	release
218.934	6.317	CUE_LISTEN	        M3	2	n/a	n/a	n/a
225.251	7.758	FIXCROSS	n/a	n/a	n/a	n/a	n/a
233.009	6.325	CUE_PLAYBACK_BOTH_HANDS	        M3	2	n/a	n/a	n/a
233.742	n/a	RESPONSE	        M3	2	00	C3	press
233.786	n/a	RESPONSE	        M3	2	19	G4	press
233.985	n/a	RESPONSE	        M3	2	21	A4	press
234.056	n/a	RESPONSE	        M3	2	19	G4	release
234.147	n/a	RESPONSE	        M3	2	07	G3	press
234.218	n/a	RESPONSE	        M3	2	19	G4	press
234.28	n/a	RESPONSE	        M3	2	00	C3	release
234.291	n/a	RESPONSE	        M3	2	21	A4	release
234.422	n/a	RESPONSE	        M3	2	17	F4	press
234.513	n/a	RESPONSE	        M3	2	04	E3	press
234.626	n/a	RESPONSE	        M3	2	19	G4	release
234.656	n/a	RESPONSE	        M3	2	07	G3	release
234.677	n/a	RESPONSE	        M3	2	16	E4	press
235.048	n/a	RESPONSE	        M3	2	07	G3	press
235.07	n/a	RESPONSE	        M3	2	12	C4	press
235.091	n/a	RESPONSE	        M3	2	17	F4	release
235.152	n/a	RESPONSE	        M3	2	16	E4	release
235.156	n/a	RESPONSE	        M3	2	04	E3	release
235.315	n/a	RESPONSE	        M3	2	12	C4	release
235.336	n/a	RESPONSE	        M3	2	07	G3	release
235.417	n/a	RESPONSE	        M3	2	00	C3	press
235.451	n/a	RESPONSE	        M3	2	19	G4	press
235.63	n/a	RESPONSE	        M3	2	21	A4	press
235.741	n/a	RESPONSE	        M3	2	19	G4	release
235.802	n/a	RESPONSE	        M3	2	07	G3	press
235.833	n/a	RESPONSE	        M3	2	19	G4	press
235.875	n/a	RESPONSE	        M3	2	00	C3	release
235.906	n/a	RESPONSE	        M3	2	21	A4	release
236.077	n/a	RESPONSE	        M3	2	17	F4	press
236.188	n/a	RESPONSE	        M3	2	19	G4	release
236.2	n/a	RESPONSE	        M3	2	04	E3	press
236.271	n/a	RESPONSE	        M3	2	07	G3	release
236.322	n/a	RESPONSE	        M3	2	16	E4	press
236.673	n/a	RESPONSE	        M3	2	07	G3	press
236.698	n/a	RESPONSE	        M3	2	12	C4	press
236.811	n/a	RESPONSE	        M3	2	17	F4	release
236.848	n/a	RESPONSE	        M3	2	16	E4	release
236.863	n/a	RESPONSE	        M3	2	04	E3	release
236.958	n/a	RESPONSE	        M3	2	12	C4	release
236.987	n/a	RESPONSE	        M3	2	07	G3	release
237.145	n/a	RESPONSE	        M3	2	00	C3	press
237.195	n/a	RESPONSE	        M3	2	12	C4	press
237.566	n/a	RESPONSE	        M3	2	12	C4	release
237.59	n/a	RESPONSE	        M3	2	07	G3	press
237.823	n/a	RESPONSE	        M3	2	00	C3	release
237.99	n/a	RESPONSE	        M3	2	07	G3	release
238.006	n/a	RESPONSE	        M3	2	00	C3	press
238.008	n/a	RESPONSE	        M3	2	12	C4	press
238.586	n/a	RESPONSE	        M3	2	00	C3	release
238.603	n/a	RESPONSE	        M3	2	12	C4	release
238.813	n/a	RESPONSE	        M3	2	00	C3	press
238.831	n/a	RESPONSE	        M3	2	12	C4	press
239.213	n/a	RESPONSE	        M3	2	12	C4	release
239.247	n/a	RESPONSE	        M3	2	07	G3	press
239.334	7.758	FIXCROSS	n/a	n/a	n/a	n/a	n/a
239.348	n/a	RESPONSE	        M3	2	00	C3	release
239.576	n/a	RESPONSE	        M3	2	07	G3	release
239.61	n/a	RESPONSE	        M3	2	00	C3	press
239.636	n/a	RESPONSE	        M3	2	12	C4	press
240.258	n/a	RESPONSE	        M3	2	12	C4	release
240.3	n/a	RESPONSE	        M3	2	00	C3	release
247.093	6.325	CUE_LISTEN	        M6	1	n/a	n/a	n/a
253.418	7.758	FIXCROSS	n/a	n/a	n/a	n/a	n/a
261.176	6.308	CUE_PLAYBACK_BOTH_HANDS	        M6	1	n/a	n/a	n/a
262.375	n/a	RESPONSE	        M6	1	04	E3	press
262.426	n/a	RESPONSE	        M6	1	16	E4	press
262.847	n/a	RESPONSE	        M6	1	16	E4	release
262.901	n/a	RESPONSE	        M6	1	04	E3	release
263.091	n/a	RESPONSE	        M6	1	04	E3	press
263.101	n/a	RESPONSE	        M6	1	16	E4	press
263.952	n/a	RESPONSE	        M6	1	11	B3	press
263.973	n/a	RESPONSE	        M6	1	17	F4	press
264.074	n/a	RESPONSE	        M6	1	16	E4	release
264.156	n/a	RESPONSE	        M6	1	04	E3	release
264.507	n/a	RESPONSE	        M6	1	17	F4	release
264.528	n/a	RESPONSE	        M6	1	11	B3	release
264.68	n/a	RESPONSE	        M6	1	04	E3	press
264.691	n/a	RESPONSE	        M6	1	16	E4	press
265.703	n/a	RESPONSE	        M6	1	17	F4	press
265.733	n/a	RESPONSE	        M6	1	11	B3	press
265.804	n/a	RESPONSE	        M6	1	16	E4	release
265.946	n/a	RESPONSE	        M6	1	04	E3	release
266.277	n/a	RESPONSE	        M6	1	11	B3	release
266.378	n/a	RESPONSE	        M6	1	17	F4	release
266.407	n/a	RESPONSE	        M6	1	16	E4	press
266.426	n/a	RESPONSE	        M6	1	04	E3	press
266.763	n/a	RESPONSE	        M6	1	04	E3	release
266.932	n/a	RESPONSE	        M6	1	04	E3	press
267.367	n/a	RESPONSE	        M6	1	17	F4	press
267.447	n/a	RESPONSE	        M6	1	11	B3	press
267.484	7.758	FIXCROSS	n/a	n/a	n/a	n/a	n/a
267.496	n/a	RESPONSE	        M6	1	15	D#4	press
267.582	n/a	RESPONSE	        M6	1	16	E4	release
267.593	n/a	RESPONSE	        M6	1	17	F4	release
267.627	n/a	RESPONSE	        M6	1	04	E3	release
267.731	n/a	RESPONSE	        M6	1	17	F4	press
267.804	n/a	RESPONSE	        M6	1	15	D#4	release
267.824	n/a	RESPONSE	        M6	1	16	E4	press
267.831	n/a	RESPONSE	        M6	1	07	G3	press
267.951	n/a	RESPONSE	        M6	1	11	B3	release
268.056	n/a	RESPONSE	        M6	1	19	G4	press
268.262	n/a	RESPONSE	        M6	1	17	F4	release
268.357	n/a	RESPONSE	        M6	1	07	G3	release
268.36	n/a	RESPONSE	        M6	1	19	G4	release
268.518	n/a	RESPONSE	        M6	1	16	E4	release
275.243	6.325	CUE_LISTEN	        M6	2	n/a	n/a	n/a
281.568	7.767	FIXCROSS	n/a	n/a	n/a	n/a	n/a
283.858	n/a	RESPONSE	        M6	2	04	E3	press
285.662	n/a	RESPONSE	        M6	2	04	E3	release
287.651	n/a	RESPONSE	        M6	2	04	E3	press
289.334	6.308	CUE_PLAYBACK_BOTH_HANDS	        M6	2	n/a	n/a	n/a
289.448	n/a	RESPONSE	        M6	2	04	E3	release
289.733	n/a	RESPONSE	        M6	2	04	E3	press
289.754	n/a	RESPONSE	        M6	2	16	E4	press
290.287	n/a	RESPONSE	        M6	2	11	B3	press
290.408	n/a	RESPONSE	        M6	2	19	G4	press
290.42	n/a	RESPONSE	        M6	2	16	E4	release
290.481	n/a	RESPONSE	        M6	2	04	E3	release
290.572	n/a	RESPONSE	        M6	2	18	F#4	press
290.723	n/a	RESPONSE	        M6	2	19	G4	release
290.834	n/a	RESPONSE	        M6	2	07	G3	press
290.846	n/a	RESPONSE	        M6	2	19	G4	press
290.848	n/a	RESPONSE	        M6	2	16	E4	press
290.898	n/a	RESPONSE	        M6	2	18	F#4	release
290.93	n/a	RESPONSE	        M6	2	11	B3	release
291.351	n/a	RESPONSE	        M6	2	24	C5	press
291.362	n/a	RESPONSE	        M6	2	11	B3	press
291.383	n/a	RESPONSE	        M6	2	23	B4	press
291.504	n/a	RESPONSE	        M6	2	07	G3	release
291.548	n/a	RESPONSE	        M6	2	23	B4	release
291.557	n/a	RESPONSE	        M6	2	19	G4	release
291.568	n/a	RESPONSE	        M6	2	16	E4	release
291.821	n/a	RESPONSE	        M6	2	24	C5	release
291.992	n/a	RESPONSE	        M6	2	04	E3	press
291.996	n/a	RESPONSE	        M6	2	11	B3	release
292.734	n/a	RESPONSE	        M6	2	16	E4	press
293.246	n/a	RESPONSE	        M6	2	11	B3	press
293.337	n/a	RESPONSE	        M6	2	16	E4	release
293.348	n/a	RESPONSE	        M6	2	04	E3	release
293.731	n/a	RESPONSE	        M6	2	07	G3	press
293.752	n/a	RESPONSE	        M6	2	16	E4	press
293.812	n/a	RESPONSE	        M6	2	11	B3	release
293.913	n/a	RESPONSE	        M6	2	07	G3	release
294.386	n/a	RESPONSE	        M6	2	06	F#3	press
294.878	n/a	RESPONSE	        M6	2	06	F#3	release
294.948	n/a	RESPONSE	        M6	2	11	B3	press
295.081	n/a	RESPONSE	        M6	2	16	E4	release
295.181	n/a	RESPONSE	        M6	2	11	B3	release
295.573	n/a	RESPONSE	        M6	2	04	E3	press
295.583	n/a	RESPONSE	        M6	2	16	E4	press
295.643	7.758	FIXCROSS	n/a	n/a	n/a	n/a	n/a
296.214	n/a	RESPONSE	        M6	2	09	A3	press
296.36	n/a	RESPONSE	        M6	2	16	E4	release
296.424	n/a	RESPONSE	        M6	2	04	E3	release
296.803	n/a	RESPONSE	        M6	2	16	E4	press
296.808	n/a	RESPONSE	        M6	2	09	A3	release
296.906	n/a	RESPONSE	        M6	2	04	E3	press
297.308	n/a	RESPONSE	        M6	2	04	E3	release
297.608	n/a	RESPONSE	        M6	2	16	E4	release
303.401	6.317	CUE_LISTEN	        M2	1	n/a	n/a	n/a
309.718	7.758	FIXCROSS	n/a	n/a	n/a	n/a	n/a
312.231	n/a	RESPONSE	        M2	1	07	G3	press
317.476	6.325	CUE_PLAYBACK_RIGHT_HAND	        M2	1	n/a	n/a	n/a
318.073	n/a	RESPONSE	        M2	1	07	G3	release
318.381	n/a	RESPONSE	        M2	1	24	C5	press
319.093	n/a	RESPONSE	        M2	1	19	G4	press
319.363	n/a	RESPONSE	        M2	1	19	G4	release
319.526	n/a	RESPONSE	        M2	1	19	G4	press
319.577	n/a	RESPONSE	        M2	1	24	C5	release
320.08	n/a	RESPONSE	        M2	1	17	F4	press
320.143	n/a	RESPONSE	        M2	1	19	G4	release
320.594	n/a	RESPONSE	        M2	1	16	E4	press
320.683	n/a	RESPONSE	        M2	1	17	F4	release
320.956	n/a	RESPONSE	        M2	1	17	F4	press
321.048	n/a	RESPONSE	        M2	1	16	E4	release
321.317	n/a	RESPONSE	        M2	1	19	G4	press
321.488	n/a	RESPONSE	        M2	1	17	F4	release
321.761	n/a	RESPONSE	        M2	1	19	G4	release
322.052	n/a	RESPONSE	        M2	1	24	C5	press
322.456	n/a	RESPONSE	        M2	1	19	G4	press
322.535	n/a	RESPONSE	        M2	1	24	C5	release
322.696	n/a	RESPONSE	        M2	1	19	G4	release
322.877	n/a	RESPONSE	        M2	1	19	G4	press
323.27	n/a	RESPONSE	        M2	1	17	F4	press
323.401	n/a	RESPONSE	        M2	1	19	G4	release
323.641	n/a	RESPONSE	        M2	1	16	E4	press
323.672	n/a	RESPONSE	        M2	1	17	F4	release
323.801	7.758	FIXCROSS	n/a	n/a	n/a	n/a	n/a
324.034	n/a	RESPONSE	        M2	1	14	D4	press
324.144	n/a	RESPONSE	        M2	1	16	E4	release
324.426	n/a	RESPONSE	        M2	1	12	C4	press
325.088	n/a	RESPONSE	        M2	1	14	D4	release
325.248	n/a	RESPONSE	        M2	1	12	C4	release
331.56	6.325	CUE_LISTEN	        M2	2	n/a	n/a	n/a
337.885	7.758	FIXCROSS	n/a	n/a	n/a	n/a	n/a
345.643	6.317	CUE_PLAYBACK_RIGHT_HAND	        M2	2	n/a	n/a	n/a
346.584	n/a	RESPONSE	        M2	2	12	C4	press
346.973	n/a	RESPONSE	        M2	2	14	D4	press
347.121	n/a	RESPONSE	        M2	2	12	C4	release
347.358	n/a	RESPONSE	        M2	2	16	E4	press
347.413	n/a	RESPONSE	        M2	2	14	D4	release
347.761	n/a	RESPONSE	        M2	2	14	D4	press
347.811	n/a	RESPONSE	        M2	2	16	E4	release
348.154	n/a	RESPONSE	        M2	2	16	E4	press
348.157	n/a	RESPONSE	        M2	2	14	D4	release
348.541	n/a	RESPONSE	        M2	2	17	F4	press
348.64	n/a	RESPONSE	        M2	2	16	E4	release
348.923	n/a	RESPONSE	        M2	2	19	G4	press
348.974	n/a	RESPONSE	        M2	2	17	F4	release
349.501	n/a	RESPONSE	        M2	2	19	G4	release
349.594	n/a	RESPONSE	        M2	2	16	E4	press
350.016	n/a	RESPONSE	        M2	2	19	G4	press
350.037	n/a	RESPONSE	        M2	2	16	E4	release
350.338	n/a	RESPONSE	        M2	2	19	G4	release
350.461	n/a	RESPONSE	        M2	2	19	G4	press
350.801	n/a	RESPONSE	        M2	2	17	F4	press
350.942	n/a	RESPONSE	        M2	2	19	G4	release
351.193	n/a	RESPONSE	        M2	2	16	E4	press
351.294	n/a	RESPONSE	        M2	2	17	F4	release
351.606	n/a	RESPONSE	        M2	2	14	D4	press
351.747	n/a	RESPONSE	        M2	2	16	E4	release
351.96	7.758	FIXCROSS	n/a	n/a	n/a	n/a	n/a
352.0	n/a	RESPONSE	        M2	2	12	C4	press
352.081	n/a	RESPONSE	        M2	2	14	D4	release
352.473	n/a	RESPONSE	        M2	2	12	C4	release
359.718	6.317	CUE_LISTEN	        M8	1	n/a	n/a	n/a
366.035	7.758	FIXCROSS	n/a	n/a	n/a	n/a	n/a
373.793	6.317	CUE_PLAYBACK_RIGHT_HAND	        M8	1	n/a	n/a	n/a
374.671	n/a	RESPONSE	        M8	1	16	E4	press
374.922	n/a	RESPONSE	        M8	1	19	G4	press
375.053	n/a	RESPONSE	        M8	1	16	E4	release
375.254	n/a	RESPONSE	        M8	1	23	B4	press
375.268	n/a	RESPONSE	        M8	1	19	G4	release
375.558	n/a	RESPONSE	        M8	1	23	B4	release
375.778	n/a	RESPONSE	        M8	1	23	B4	press
376.23	n/a	RESPONSE	        M8	1	18	F#4	press
376.49	n/a	RESPONSE	        M8	1	23	B4	release
376.827	n/a	RESPONSE	        M8	1	16	E4	press
376.958	n/a	RESPONSE	        M8	1	18	F#4	release
377.408	n/a	RESPONSE	        M8	1	16	E4	release
378.341	n/a	RESPONSE	        M8	1	23	B4	press
378.881	n/a	RESPONSE	        M8	1	21	A4	press
378.983	n/a	RESPONSE	        M8	1	19	G4	press
379.108	n/a	RESPONSE	        M8	1	23	B4	release
379.311	n/a	RESPONSE	        M8	1	18	F#4	press
379.446	n/a	RESPONSE	        M8	1	21	A4	release
379.454	n/a	RESPONSE	        M8	1	19	G4	release
379.641	n/a	RESPONSE	        M8	1	19	G4	press
379.763	n/a	RESPONSE	        M8	1	18	F#4	release
379.777	n/a	RESPONSE	        M8	1	19	G4	release
379.788	n/a	RESPONSE	        M8	1	16	E4	press
380.11	7.759	FIXCROSS	n/a	n/a	n/a	n/a	n/a
380.582	n/a	RESPONSE	        M8	1	16	E4	release
382.122	n/a	RESPONSE	        M8	1	16	E4	press
382.316	n/a	RESPONSE	        M8	1	16	E4	release
383.226	n/a	RESPONSE	        M8	1	23	B4	press
383.516	n/a	RESPONSE	        M8	1	23	B4	release
387.868	6.325	CUE_LISTEN	        M8	2	n/a	n/a	n/a
394.193	7.758	FIXCROSS	n/a	n/a	n/a	n/a	n/a
401.951	6.317	CUE_PLAYBACK_RIGHT_HAND	        M8	2	n/a	n/a	n/a
402.497	n/a	RESPONSE	        M8	2	16	E4	press
402.788	n/a	RESPONSE	        M8	2	19	G4	press
402.909	n/a	RESPONSE	        M8	2	16	E4	release
403.101	n/a	RESPONSE	        M8	2	23	B4	press
403.122	n/a	RESPONSE	        M8	2	19	G4	release
403.396	n/a	RESPONSE	        M8	2	23	B4	release
403.594	n/a	RESPONSE	        M8	2	23	B4	press
404.066	n/a	RESPONSE	        M8	2	18	F#4	press
404.367	n/a	RESPONSE	        M8	2	23	B4	release
404.608	n/a	RESPONSE	        M8	2	21	A4	press
404.72	n/a	RESPONSE	        M8	2	18	F#4	release
405.412	n/a	RESPONSE	        M8	2	21	A4	release
405.882	n/a	RESPONSE	        M8	2	19	G4	press
406.194	n/a	RESPONSE	        M8	2	17	F4	press
406.344	n/a	RESPONSE	        M8	2	17	F4	release
406.577	n/a	RESPONSE	        M8	2	18	F#4	press
406.664	n/a	RESPONSE	        M8	2	19	G4	release
407.089	n/a	RESPONSE	        M8	2	19	G4	press
407.594	n/a	RESPONSE	        M8	2	16	E4	press
407.63	n/a	RESPONSE	        M8	2	18	F#4	release
407.686	n/a	RESPONSE	        M8	2	19	G4	release
408.268	7.758	FIXCROSS	n/a	n/a	n/a	n/a	n/a
408.428	n/a	RESPONSE	        M8	2	16	E4	release
416.026	6.325	CUE_LISTEN	        M4	1	n/a	n/a	n/a
422.351	7.758	FIXCROSS	n/a	n/a	n/a	n/a	n/a
430.11	6.317	CUE_PLAYBACK_BOTH_HANDS	        M4	1	n/a	n/a	n/a
431.707	n/a	RESPONSE	        M4	1	09	A3	press
431.718	n/a	RESPONSE	        M4	1	12	C4	press
431.729	n/a	RESPONSE	        M4	1	05	F3	press
432.732	n/a	RESPONSE	        M4	1	17	F4	press
433.263	n/a	RESPONSE	        M4	1	21	A4	press
433.314	n/a	RESPONSE	        M4	1	17	F4	release
433.728	n/a	RESPONSE	        M4	1	19	G4	press
434.147	n/a	RESPONSE	        M4	1	17	F4	press
434.231	n/a	RESPONSE	        M4	1	21	A4	release
434.279	n/a	RESPONSE	        M4	1	19	G4	release
434.592	n/a	RESPONSE	        M4	1	16	E4	press
434.672	n/a	RESPONSE	        M4	1	17	F4	release
435.003	n/a	RESPONSE	        M4	1	17	F4	press
435.094	n/a	RESPONSE	        M4	1	16	E4	release
435.516	n/a	RESPONSE	        M4	1	17	F4	release
435.527	n/a	RESPONSE	        M4	1	05	F3	release
435.568	n/a	RESPONSE	        M4	1	09	A3	release
435.71	n/a	RESPONSE	        M4	1	12	C4	release
435.802	n/a	RESPONSE	        M4	1	09	A3	press
435.804	n/a	RESPONSE	        M4	1	12	C4	press
435.853	n/a	RESPONSE	        M4	1	05	F3	press
436.306	n/a	RESPONSE	        M4	1	17	F4	press
436.426	7.758	FIXCROSS	n/a	n/a	n/a	n/a	n/a
436.791	n/a	RESPONSE	        M4	1	21	A4	press
436.888	n/a	RESPONSE	        M4	1	17	F4	release
437.244	n/a	RESPONSE	        M4	1	19	G4	press
437.682	n/a	RESPONSE	        M4	1	17	F4	press
437.967	n/a	RESPONSE	        M4	1	21	A4	release
438.139	n/a	RESPONSE	        M4	1	16	E4	press
438.168	n/a	RESPONSE	        M4	1	19	G4	release
438.212	n/a	RESPONSE	        M4	1	17	F4	release
438.584	n/a	RESPONSE	        M4	1	17	F4	press
438.694	n/a	RESPONSE	        M4	1	16	E4	release
439.126	n/a	RESPONSE	        M4	1	17	F4	release
439.219	n/a	RESPONSE	        M4	1	05	F3	release
439.301	n/a	RESPONSE	        M4	1	09	A3	release
440.658	n/a	RESPONSE	        M4	1	12	C4	release
444.185	6.317	CUE_LISTEN	        M4	2	n/a	n/a	n/a
450.502	7.758	FIXCROSS	n/a	n/a	n/a	n/a	n/a
458.26	6.317	CUE_PLAYBACK_BOTH_HANDS	        M4	2	n/a	n/a	n/a
459.089	n/a	RESPONSE	        M4	2	12	C4	press
459.092	n/a	RESPONSE	        M4	2	09	A3	press
459.097	n/a	RESPONSE	        M4	2	05	F3	press
459.573	n/a	RESPONSE	        M4	2	17	F4	press
460.139	n/a	RESPONSE	        M4	2	21	A4	press
460.301	n/a	RESPONSE	        M4	2	17	F4	release
460.424	n/a	RESPONSE	        M4	2	23	B4	press
460.683	n/a	RESPONSE	        M4	2	23	B4	release
461.017	n/a	RESPONSE	        M4	2	23	B4	press
461.126	n/a	RESPONSE	        M4	2	21	A4	release
461.477	n/a	RESPONSE	        M4	2	05	F3	release
461.499	n/a	RESPONSE	        M4	2	09	A3	release
461.871	n/a	RESPONSE	        M4	2	04	E3	press
461.873	n/a	RESPONSE	        M4	2	23	B4	release
461.884	n/a	RESPONSE	        M4	2	07	G3	press
461.917	n/a	RESPONSE	        M4	2	20	G#4	press
462.506	n/a	RESPONSE	        M4	2	17	F4	press
462.508	n/a	RESPONSE	        M4	2	19	G4	press
462.648	n/a	RESPONSE	        M4	2	17	F4	release
462.661	n/a	RESPONSE	        M4	2	19	G4	release
462.731	n/a	RESPONSE	        M4	2	20	G#4	release
462.802	n/a	RESPONSE	        M4	2	19	G4	press
463.223	n/a	RESPONSE	        M4	2	17	F4	press
463.357	n/a	RESPONSE	        M4	2	19	G4	release
463.637	n/a	RESPONSE	        M4	2	17	F4	release
463.877	n/a	RESPONSE	        M4	2	07	G3	release
463.918	n/a	RESPONSE	        M4	2	12	C4	release
464.002	n/a	RESPONSE	        M4	2	07	G3	press
464.022	n/a	RESPONSE	        M4	2	12	C4	press
464.544	n/a	RESPONSE	        M4	2	16	E4	press
464.576	7.758	FIXCROSS	n/a	n/a	n/a	n/a	n/a
465.063	n/a	RESPONSE	        M4	2	19	G4	press
465.076	n/a	RESPONSE	        M4	2	17	F4	press
465.196	n/a	RESPONSE	        M4	2	16	E4	release
465.657	n/a	RESPONSE	        M4	2	17	F4	release
466.249	n/a	RESPONSE	        M4	2	22	A#4	press
466.259	n/a	RESPONSE	        M4	2	19	G4	release
466.478	n/a	RESPONSE	        M4	2	07	G3	release
466.554	n/a	RESPONSE	        M4	2	04	E3	release
466.606	n/a	RESPONSE	        M4	2	12	C4	release
467.049	n/a	RESPONSE	        M4	2	22	A#4	release
467.066	n/a	RESPONSE	        M4	2	05	F3	press
467.077	n/a	RESPONSE	        M4	2	21	A4	press
467.107	n/a	RESPONSE	        M4	2	09	A3	press
467.118	n/a	RESPONSE	        M4	2	12	C4	press
467.589	n/a	RESPONSE	        M4	2	19	G4	press
467.784	n/a	RESPONSE	        M4	2	21	A4	release
468.011	n/a	RESPONSE	        M4	2	17	F4	press
468.134	n/a	RESPONSE	        M4	2	19	G4	release
468.646	n/a	RESPONSE	        M4	2	17	F4	release
468.662	n/a	RESPONSE	        M4	2	05	F3	release
468.664	n/a	RESPONSE	        M4	2	09	A3	release
468.784	n/a	RESPONSE	        M4	2	12	C4	release
472.335	6.325	CUE_LISTEN	        M3	1	n/a	n/a	n/a
478.66	7.758	FIXCROSS	n/a	n/a	n/a	n/a	n/a
486.418	6.317	CUE_PLAYBACK_RIGHT_HAND	        M3	1	n/a	n/a	n/a
487.392	n/a	RESPONSE	        M3	1	12	C4	press
487.788	n/a	RESPONSE	        M3	1	14	D4	press
488.214	n/a	RESPONSE	        M3	1	16	E4	press
488.217	n/a	RESPONSE	        M3	1	12	C4	release
488.327	n/a	RESPONSE	        M3	1	14	D4	release
488.669	n/a	RESPONSE	        M3	1	12	C4	press
488.732	n/a	RESPONSE	        M3	1	16	E4	release
488.958	n/a	RESPONSE	        M3	1	12	C4	release
489.134	n/a	RESPONSE	        M3	1	12	C4	press
489.551	n/a	RESPONSE	        M3	1	14	D4	press
489.689	n/a	RESPONSE	        M3	1	12	C4	release
489.983	n/a	RESPONSE	        M3	1	16	E4	press
490.064	n/a	RESPONSE	        M3	1	14	D4	release
490.446	n/a	RESPONSE	        M3	1	12	C4	press
490.517	n/a	RESPONSE	        M3	1	16	E4	release
490.718	n/a	RESPONSE	        M3	1	12	C4	release
490.902	n/a	RESPONSE	        M3	1	16	E4	press
491.321	n/a	RESPONSE	        M3	1	17	F4	press
491.443	n/a	RESPONSE	        M3	1	16	E4	release
491.723	n/a	RESPONSE	        M3	1	19	G4	press
491.796	n/a	RESPONSE	        M3	1	17	F4	release
492.318	n/a	RESPONSE	        M3	1	19	G4	release
492.419	n/a	RESPONSE	        M3	1	16	E4	press
492.735	7.758	FIXCROSS	n/a	n/a	n/a	n/a	n/a
492.852	n/a	RESPONSE	        M3	1	17	F4	press
492.941	n/a	RESPONSE	        M3	1	16	E4	release
493.232	n/a	RESPONSE	        M3	1	19	G4	press
493.313	n/a	RESPONSE	        M3	1	17	F4	release
493.914	n/a	RESPONSE	        M3	1	19	G4	release
500.493	6.317	CUE_LISTEN	        M3	2	n/a	n/a	n/a
506.81	7.758	FIXCROSS	n/a	n/a	n/a	n/a	n/a
514.568	6.325	CUE_PLAYBACK_RIGHT_HAND	        M3	2	n/a	n/a	n/a
515.021	n/a	RESPONSE	        M3	2	19	G4	press
515.402	n/a	RESPONSE	        M3	2	19	G4	release
515.513	n/a	RESPONSE	        M3	2	19	G4	press
515.764	n/a	RESPONSE	        M3	2	21	A4	press
515.847	n/a	RESPONSE	        M3	2	19	G4	release
515.988	n/a	RESPONSE	        M3	2	19	G4	press
516.218	n/a	RESPONSE	        M3	2	17	F4	press
516.259	n/a	RESPONSE	        M3	2	21	A4	release
516.448	n/a	RESPONSE	        M3	2	16	E4	press
516.458	n/a	RESPONSE	        M3	2	19	G4	release
516.727	n/a	RESPONSE	        M3	2	17	F4	release
516.939	n/a	RESPONSE	        M3	2	12	C4	press
517.091	n/a	RESPONSE	        M3	2	16	E4	release
517.203	n/a	RESPONSE	        M3	2	12	C4	release
517.308	n/a	RESPONSE	        M3	2	19	G4	press
517.509	n/a	RESPONSE	        M3	2	21	A4	press
517.557	n/a	RESPONSE	        M3	2	19	G4	release
517.737	n/a	RESPONSE	        M3	2	19	G4	press
517.872	n/a	RESPONSE	        M3	2	21	A4	release
517.956	n/a	RESPONSE	        M3	2	17	F4	press
518.188	n/a	RESPONSE	        M3	2	16	E4	press
518.271	n/a	RESPONSE	        M3	2	19	G4	release
518.323	n/a	RESPONSE	        M3	2	17	F4	release
518.658	n/a	RESPONSE	        M3	2	12	C4	press
518.769	n/a	RESPONSE	        M3	2	16	E4	release
518.954	n/a	RESPONSE	        M3	2	12	C4	release
519.208	n/a	RESPONSE	        M3	2	12	C4	press
519.777	n/a	RESPONSE	        M3	2	07	G3	press
519.779	n/a	RESPONSE	        M3	2	09	A3	press
519.828	n/a	RESPONSE	        M3	2	09	A3	release
520.099	n/a	RESPONSE	        M3	2	12	C4	release
520.188	n/a	RESPONSE	        M3	2	07	G3	release
520.319	n/a	RESPONSE	        M3	2	12	C4	press
520.893	7.758	FIXCROSS	n/a	n/a	n/a	n/a	n/a
520.951	n/a	RESPONSE	        M3	2	12	C4	release
521.232	n/a	RESPONSE	        M3	2	12	C4	press
521.703	n/a	RESPONSE	        M3	2	12	C4	release
522.306	n/a	RESPONSE	        M3	2	12	C4	press
522.859	n/a	RESPONSE	        M3	2	12	C4	release
528.652	6.317	CUE_LISTEN	        M5	1	n/a	n/a	n/a
534.968	7.758	FIXCROSS	n/a	n/a	n/a	n/a	n/a
542.727	6.317	CUE_PLAYBACK_BOTH_HANDS	        M5	1	n/a	n/a	n/a
543.283	n/a	RESPONSE	        M5	1	05	F3	press
543.296	n/a	RESPONSE	        M5	1	19	G4	press
543.517	n/a	RESPONSE	        M5	1	19	G4	release
543.647	n/a	RESPONSE	        M5	1	19	G4	press
543.721	n/a	RESPONSE	        M5	1	09	A3	press
543.739	n/a	RESPONSE	        M5	1	11	B3	press
543.851	n/a	RESPONSE	        M5	1	19	G4	release
543.914	n/a	RESPONSE	        M5	1	11	B3	release
544.103	n/a	RESPONSE	        M5	1	09	A3	release
544.147	n/a	RESPONSE	        M5	1	05	F3	release
544.346	n/a	RESPONSE	        M5	1	05	F3	press
544.348	n/a	RESPONSE	        M5	1	19	G4	press
544.538	n/a	RESPONSE	        M5	1	19	G4	release
544.662	n/a	RESPONSE	        M5	1	19	G4	press
544.711	n/a	RESPONSE	        M5	1	09	A3	press
544.853	n/a	RESPONSE	        M5	1	19	G4	release
544.893	n/a	RESPONSE	        M5	1	05	F3	release
545.014	n/a	RESPONSE	        M5	1	19	G4	press
545.066	n/a	RESPONSE	        M5	1	04	E3	press
545.117	n/a	RESPONSE	        M5	1	09	A3	release
545.438	n/a	RESPONSE	        M5	1	09	A3	press
545.631	n/a	RESPONSE	        M5	1	19	G4	release
545.671	n/a	RESPONSE	        M5	1	04	E3	release
545.752	n/a	RESPONSE	        M5	1	02	D3	press
545.793	n/a	RESPONSE	        M5	1	19	G4	press
545.834	n/a	RESPONSE	        M5	1	09	A3	release
545.986	n/a	RESPONSE	        M5	1	19	G4	release
546.137	n/a	RESPONSE	        M5	1	09	A3	press
546.139	n/a	RESPONSE	        M5	1	19	G4	press
546.231	n/a	RESPONSE	        M5	1	02	D3	release
546.331	n/a	RESPONSE	        M5	1	19	G4	release
546.418	n/a	RESPONSE	        M5	1	00	C3	press
546.487	n/a	RESPONSE	        M5	1	19	G4	press
546.532	n/a	RESPONSE	        M5	1	09	A3	release
546.797	n/a	RESPONSE	        M5	1	09	A3	press
546.933	n/a	RESPONSE	        M5	1	00	C3	release
547.019	n/a	RESPONSE	        M5	1	19	G4	release
547.119	n/a	RESPONSE	        M5	1	19	G4	press
547.129	n/a	RESPONSE	        M5	1	09	A3	release
547.141	n/a	RESPONSE	        M5	1	05	F3	press
547.456	n/a	RESPONSE	        M5	1	23	B4	press
547.477	n/a	RESPONSE	        M5	1	09	A3	press
547.537	n/a	RESPONSE	        M5	1	19	G4	release
547.612	n/a	RESPONSE	        M5	1	05	F3	release
547.767	n/a	RESPONSE	        M5	1	04	E3	press
547.782	n/a	RESPONSE	        M5	1	16	E4	press
547.832	n/a	RESPONSE	        M5	1	09	A3	release
548.112	n/a	RESPONSE	        M5	1	09	A3	press
548.118	n/a	RESPONSE	        M5	1	17	F4	press
548.144	n/a	RESPONSE	        M5	1	23	B4	release
548.228	n/a	RESPONSE	        M5	1	16	E4	release
548.339	n/a	RESPONSE	        M5	1	04	E3	release
548.413	n/a	RESPONSE	        M5	1	02	D3	press
548.422	n/a	RESPONSE	        M5	1	19	G4	press
548.464	n/a	RESPONSE	        M5	1	09	A3	release
548.481	n/a	RESPONSE	        M5	1	17	F4	release
548.773	n/a	RESPONSE	        M5	1	09	A3	press
548.862	n/a	RESPONSE	        M5	1	02	D3	release
549.043	7.758	FIXCROSS	n/a	n/a	n/a	n/a	n/a
549.074	n/a	RESPONSE	        M5	1	00	C3	press
549.184	n/a	RESPONSE	        M5	1	09	A3	release
549.423	n/a	RESPONSE	        M5	1	09	A3	press
549.504	n/a	RESPONSE	        M5	1	00	C3	release
549.621	n/a	RESPONSE	        M5	1	19	G4	release
550.943	n/a	RESPONSE	        M5	1	09	A3	release
556.802	6.333	CUE_LISTEN	        M5	2	n/a	n/a	n/a
563.135	7.758	FIXCROSS	n/a	n/a	n/a	n/a	n/a
570.894	6.308	CUE_PLAYBACK_BOTH_HANDS	        M5	2	n/a	n/a	n/a
571.434	n/a	RESPONSE	        M5	2	07	G3	press
571.437	n/a	RESPONSE	        M5	2	20	G#4	press
571.647	n/a	RESPONSE	        M5	2	20	G#4	release
571.799	n/a	RESPONSE	        M5	2	20	G#4	press
571.811	n/a	RESPONSE	        M5	2	10	A#3	press
571.952	n/a	RESPONSE	        M5	2	20	G#4	release
571.976	n/a	RESPONSE	        M5	2	07	G3	release
572.114	n/a	RESPONSE	        M5	2	10	A#3	release
572.127	n/a	RESPONSE	        M5	2	04	E3	press
572.139	n/a	RESPONSE	        M5	2	20	G#4	press
572.349	n/a	RESPONSE	        M5	2	20	G#4	release
572.502	n/a	RESPONSE	        M5	2	10	A#3	press
572.511	n/a	RESPONSE	        M5	2	20	G#4	press
572.663	n/a	RESPONSE	        M5	2	04	E3	release
572.696	n/a	RESPONSE	        M5	2	20	G#4	release
572.836	n/a	RESPONSE	        M5	2	10	A#3	release
572.897	n/a	RESPONSE	        M5	2	20	G#4	press
573.028	n/a	RESPONSE	        M5	2	05	F3	press
573.399	n/a	RESPONSE	        M5	2	20	G#4	release
573.461	n/a	RESPONSE	        M5	2	19	G4	press
573.532	n/a	RESPONSE	        M5	2	09	A3	press
573.673	n/a	RESPONSE	        M5	2	05	F3	release
573.694	n/a	RESPONSE	        M5	2	19	G4	release
573.866	n/a	RESPONSE	        M5	2	19	G4	press
573.897	n/a	RESPONSE	        M5	2	00	C3	press
574.029	n/a	RESPONSE	        M5	2	09	A3	release
574.049	n/a	RESPONSE	        M5	2	19	G4	release
574.241	n/a	RESPONSE	        M5	2	19	G4	press
574.252	n/a	RESPONSE	        M5	2	09	A3	press
574.353	n/a	RESPONSE	        M5	2	00	C3	release
574.436	n/a	RESPONSE	        M5	2	19	G4	release
574.596	n/a	RESPONSE	        M5	2	19	G4	press
574.647	n/a	RESPONSE	        M5	2	05	F3	press
574.659	n/a	RESPONSE	        M5	2	07	G3	press
574.689	n/a	RESPONSE	        M5	2	09	A3	release
574.871	n/a	RESPONSE	        M5	2	07	G3	release
574.942	n/a	RESPONSE	        M5	2	05	F3	release
575.013	n/a	RESPONSE	        M5	2	19	G4	release
575.394	n/a	RESPONSE	        M5	2	19	G4	press
575.596	n/a	RESPONSE	        M5	2	19	G4	release
576.357	n/a	RESPONSE	        M5	2	07	G3	press
576.361	n/a	RESPONSE	        M5	2	19	G4	press
576.793	n/a	RESPONSE	        M5	2	19	G4	release
576.801	n/a	RESPONSE	        M5	2	11	B3	press
576.823	n/a	RESPONSE	        M5	2	07	G3	release
576.828	n/a	RESPONSE	        M5	2	17	F4	press
577.177	n/a	RESPONSE	        M5	2	17	F4	release
577.202	7.759	FIXCROSS	n/a	n/a	n/a	n/a	n/a
577.204	n/a	RESPONSE	        M5	2	19	G4	press
577.238	n/a	RESPONSE	        M5	2	00	C3	press
577.319	n/a	RESPONSE	        M5	2	11	B3	release
577.372	n/a	RESPONSE	        M5	2	00	C3	release
577.598	n/a	RESPONSE	        M5	2	19	G4	release
577.674	n/a	RESPONSE	        M5	2	00	C3	press
578.074	n/a	RESPONSE	        M5	2	19	G4	press
578.139	n/a	RESPONSE	        M5	2	11	B3	press
578.274	n/a	RESPONSE	        M5	2	00	C3	release
578.367	n/a	RESPONSE	        M5	2	19	G4	release
578.462	n/a	RESPONSE	        M5	2	11	B3	release
584.96	6.325	CUE_LISTEN	        M1	1	n/a	n/a	n/a
591.285	7.758	FIXCROSS	n/a	n/a	n/a	n/a	n/a
599.044	6.317	CUE_PLAYBACK_BOTH_HANDS	        M1	1	n/a	n/a	n/a
599.721	n/a	RESPONSE	        M1	1	04	E3	press
599.731	n/a	RESPONSE	        M1	1	07	G3	press
599.733	n/a	RESPONSE	        M1	1	19	G4	press
599.759	n/a	RESPONSE	        M1	1	00	C3	press
600.369	n/a	RESPONSE	        M1	1	16	E4	press
600.441	n/a	RESPONSE	        M1	1	19	G4	release
600.642	n/a	RESPONSE	        M1	1	16	E4	release
600.893	n/a	RESPONSE	        M1	1	16	E4	press
601.194	n/a	RESPONSE	        M1	1	00	C3	release
601.216	n/a	RESPONSE	        M1	1	16	E4	release
601.237	n/a	RESPONSE	        M1	1	04	E3	release
601.409	n/a	RESPONSE	        M1	1	17	F4	press
601.419	n/a	RESPONSE	        M1	1	02	D3	press
601.443	n/a	RESPONSE	        M1	1	05	F3	press
601.933	n/a	RESPONSE	        M1	1	14	D4	press
602.124	n/a	RESPONSE	        M1	1	17	F4	release
602.156	n/a	RESPONSE	        M1	1	14	D4	release
602.447	n/a	RESPONSE	        M1	1	14	D4	press
602.679	n/a	RESPONSE	        M1	1	02	D3	release
602.682	n/a	RESPONSE	        M1	1	05	F3	release
602.691	n/a	RESPONSE	        M1	1	14	D4	release
602.904	n/a	RESPONSE	        M1	1	04	E3	press
602.923	n/a	RESPONSE	        M1	1	12	C4	press
602.934	n/a	RESPONSE	        M1	1	00	C3	press
603.156	n/a	RESPONSE	        M1	1	16	E4	press
603.277	n/a	RESPONSE	        M1	1	12	C4	release
603.409	n/a	RESPONSE	        M1	1	19	G4	press
603.519	n/a	RESPONSE	        M1	1	16	E4	release
603.861	n/a	RESPONSE	        M1	1	19	G4	release
603.962	n/a	RESPONSE	        M1	1	00	C3	release
604.063	n/a	RESPONSE	        M1	1	04	E3	release
604.844	n/a	RESPONSE	        M1	1	07	G3	release
605.36	7.759	FIXCROSS	n/a	n/a	n/a	n/a	n/a
613.119	6.317	CUE_LISTEN	        M1	2	n/a	n/a	n/a
619.435	7.758	FIXCROSS	n/a	n/a	n/a	n/a	n/a
627.194	6.325	CUE_PLAYBACK_BOTH_HANDS	        M1	2	n/a	n/a	n/a
628.109	n/a	RESPONSE	        M1	2	04	E3	press
628.122	n/a	RESPONSE	        M1	2	07	G3	press
628.129	n/a	RESPONSE	        M1	2	19	G4	press
628.142	n/a	RESPONSE	        M1	2	00	C3	press
628.988	n/a	RESPONSE	        M1	2	14	D4	press
629.137	n/a	RESPONSE	        M1	2	19	G4	release
629.253	n/a	RESPONSE	        M1	2	14	D4	release
629.564	n/a	RESPONSE	        M1	2	00	C3	release
629.62	n/a	RESPONSE	        M1	2	04	E3	release
631.222	n/a	RESPONSE	        M1	2	19	G4	press
631.224	n/a	RESPONSE	        M1	2	04	E3	press
631.236	n/a	RESPONSE	        M1	2	00	C3	press
631.887	n/a	RESPONSE	        M1	2	16	E4	press
632.028	n/a	RESPONSE	        M1	2	19	G4	release
632.152	n/a	RESPONSE	        M1	2	16	E4	release
632.352	n/a	RESPONSE	        M1	2	16	E4	press
632.654	n/a	RESPONSE	        M1	2	00	C3	release
632.663	n/a	RESPONSE	        M1	2	16	E4	release
632.704	n/a	RESPONSE	        M1	2	04	E3	release
632.856	n/a	RESPONSE	        M1	2	02	D3	press
632.858	n/a	RESPONSE	        M1	2	17	F4	press
632.879	n/a	RESPONSE	        M1	2	05	F3	press
633.369	n/a	RESPONSE	        M1	2	14	D4	press
633.51	n/a	RESPONSE	        M1	2	17	F4	release
633.518	7.758	FIXCROSS	n/a	n/a	n/a	n/a	n/a
633.602	n/a	RESPONSE	        M1	2	14	D4	release
633.813	n/a	RESPONSE	        M1	2	14	D4	press
634.086	n/a	RESPONSE	        M1	2	02	D3	release
634.108	n/a	RESPONSE	        M1	2	14	D4	release
634.11	n/a	RESPONSE	        M1	2	05	F3	release
634.239	n/a	RESPONSE	        M1	2	04	E3	press
634.25	n/a	RESPONSE	        M1	2	12	C4	press
634.272	n/a	RESPONSE	        M1	2	00	C3	press
634.493	n/a	RESPONSE	        M1	2	16	E4	press
634.576	n/a	RESPONSE	        M1	2	12	C4	release
634.746	n/a	RESPONSE	        M1	2	12	C4	press
634.837	n/a	RESPONSE	        M1	2	16	E4	release
635.068	n/a	RESPONSE	        M1	2	12	C4	release
635.119	n/a	RESPONSE	        M1	2	04	E3	release
635.142	n/a	RESPONSE	        M1	2	00	C3	release
635.562	n/a	RESPONSE	        M1	2	07	G3	release
641.277	6.317	CUE_LISTEN	        M7	1	n/a	n/a	n/a
647.594	7.758	FIXCROSS	n/a	n/a	n/a	n/a	n/a
655.352	6.317	CUE_PLAYBACK_RIGHT_HAND	        M7	1	n/a	n/a	n/a
655.963	n/a	RESPONSE	        M7	1	22	A#4	press
656.556	n/a	RESPONSE	        M7	1	21	A4	press
656.689	n/a	RESPONSE	        M7	1	22	A#4	release
657.204	n/a	RESPONSE	        M7	1	19	G4	press
657.293	n/a	RESPONSE	        M7	1	21	A4	release
657.781	n/a	RESPONSE	        M7	1	21	A4	press
657.854	n/a	RESPONSE	        M7	1	19	G4	release
658.443	n/a	RESPONSE	        M7	1	14	D4	press
658.536	n/a	RESPONSE	        M7	1	21	A4	release
658.836	n/a	RESPONSE	        M7	1	14	D4	release
659.036	n/a	RESPONSE	        M7	1	14	D4	press
659.594	n/a	RESPONSE	        M7	1	19	G4	press
659.664	n/a	RESPONSE	        M7	1	14	D4	release
661.669	7.758	FIXCROSS	n/a	n/a	n/a	n/a	n/a
662.07	n/a	RESPONSE	        M7	1	07	G3	press
662.162	n/a	RESPONSE	        M7	1	19	G4	release
662.393	n/a	RESPONSE	        M7	1	09	A3	press
662.484	n/a	RESPONSE	        M7	1	07	G3	release
662.657	n/a	RESPONSE	        M7	1	10	A#3	press
662.739	n/a	RESPONSE	        M7	1	09	A3	release
663.018	n/a	RESPONSE	        M7	1	11	B3	press
663.069	n/a	RESPONSE	        M7	1	12	C4	press
663.091	n/a	RESPONSE	        M7	1	10	A#3	release
663.192	n/a	RESPONSE	        M7	1	12	C4	release
663.354	n/a	RESPONSE	        M7	1	12	C4	press
663.524	n/a	RESPONSE	        M7	1	11	B3	release
664.207	n/a	RESPONSE	        M7	1	12	C4	release
669.427	6.325	CUE_LISTEN	        M7	2	n/a	n/a	n/a
675.752	7.758	FIXCROSS	n/a	n/a	n/a	n/a	n/a
683.51	6.317	CUE_PLAYBACK_RIGHT_HAND	        M7	2	n/a	n/a	n/a
683.973	n/a	RESPONSE	        M7	2	15	D#4	press
684.524	n/a	RESPONSE	        M7	2	16	E4	press
684.536	n/a	RESPONSE	        M7	2	17	F4	press
684.607	n/a	RESPONSE	        M7	2	15	D#4	release
684.669	n/a	RESPONSE	        M7	2	17	F4	release
684.829	n/a	RESPONSE	        M7	2	15	D#4	press
684.92	n/a	RESPONSE	        M7	2	16	E4	release
685.102	n/a	RESPONSE	        M7	2	16	E4	press
685.176	n/a	RESPONSE	        M7	2	15	D#4	release
687.793	n/a	RESPONSE	        M7	2	15	D#4	press
687.884	n/a	RESPONSE	        M7	2	16	E4	release
688.728	n/a	RESPONSE	        M7	2	15	D#4	release
689.827	7.758	FIXCROSS	n/a	n/a	n/a	n/a	n/a
697.585	6.317	CUE_LISTEN	        M4	1	n/a	n/a	n/a
703.902	7.758	FIXCROSS	n/a	n/a	n/a	n/a	n/a
711.66	6.325	CUE_PLAYBACK_RIGHT_HAND	        M4	1	n/a	n/a	n/a
712.297	n/a	RESPONSE	        M4	1	12	C4	press
712.718	n/a	RESPONSE	        M4	1	17	F4	press
713.009	n/a	RESPONSE	        M4	1	12	C4	release
713.16	n/a	RESPONSE	        M4	1	21	A4	press
713.253	n/a	RESPONSE	        M4	1	17	F4	release
713.546	n/a	RESPONSE	        M4	1	19	G4	press
713.924	n/a	RESPONSE	        M4	1	17	F4	press
714.066	n/a	RESPONSE	        M4	1	19	G4	release
714.118	n/a	RESPONSE	        M4	1	21	A4	release
714.298	n/a	RESPONSE	        M4	1	16	E4	press
714.369	n/a	RESPONSE	        M4	1	17	F4	release
714.683	n/a	RESPONSE	        M4	1	17	F4	press
714.762	n/a	RESPONSE	        M4	1	16	E4	release
715.183	n/a	RESPONSE	        M4	1	17	F4	release
715.394	n/a	RESPONSE	        M4	1	12	C4	press
715.848	n/a	RESPONSE	        M4	1	17	F4	press
715.977	n/a	RESPONSE	        M4	1	12	C4	release
716.228	n/a	RESPONSE	        M4	1	21	A4	press
716.319	n/a	RESPONSE	        M4	1	17	F4	release
716.643	n/a	RESPONSE	        M4	1	19	G4	press
717.008	n/a	RESPONSE	        M4	1	17	F4	press
717.148	n/a	RESPONSE	        M4	1	19	G4	release
717.15	n/a	RESPONSE	        M4	1	21	A4	release
717.392	n/a	RESPONSE	        M4	1	16	E4	press
717.469	n/a	RESPONSE	        M4	1	17	F4	release
717.729	n/a	RESPONSE	        M4	1	17	F4	press
717.812	n/a	RESPONSE	        M4	1	16	E4	release
717.985	7.758	FIXCROSS	n/a	n/a	n/a	n/a	n/a
718.304	n/a	RESPONSE	        M4	1	17	F4	release
725.744	6.317	CUE_LISTEN	        M4	2	n/a	n/a	n/a
732.06	7.758	FIXCROSS	n/a	n/a	n/a	n/a	n/a
735.172	n/a	RESPONSE	        M4	2	23	B4	press
736.193	n/a	RESPONSE	        M4	2	23	B4	release
739.819	6.317	CUE_PLAYBACK_RIGHT_HAND	        M4	2	n/a	n/a	n/a
740.327	n/a	RESPONSE	        M4	2	12	C4	press
740.759	n/a	RESPONSE	        M4	2	17	F4	press
740.89	n/a	RESPONSE	        M4	2	12	C4	release
741.332	n/a	RESPONSE	        M4	2	21	A4	press
741.683	n/a	RESPONSE	        M4	2	17	F4	release
741.896	n/a	RESPONSE	        M4	2	23	B4	press
741.898	n/a	RESPONSE	        M4	2	24	C5	press
741.94	n/a	RESPONSE	        M4	2	21	A4	release
742.129	n/a	RESPONSE	        M4	2	24	C5	release
742.633	n/a	RESPONSE	        M4	2	20	G#4	press
743.052	n/a	RESPONSE	        M4	2	20	G#4	release
743.056	n/a	RESPONSE	        M4	2	19	G4	press
743.254	n/a	RESPONSE	        M4	2	23	B4	release
743.516	n/a	RESPONSE	        M4	2	17	F4	press
743.688	n/a	RESPONSE	        M4	2	19	G4	release
743.989	n/a	RESPONSE	        M4	2	17	F4	release
744.042	n/a	RESPONSE	        M4	2	17	F4	press
744.463	n/a	RESPONSE	        M4	2	17	F4	release
745.592	n/a	RESPONSE	        M4	2	12	C4	press
745.976	n/a	RESPONSE	        M4	2	16	E4	press
746.024	n/a	RESPONSE	        M4	2	12	C4	release
746.136	7.758	FIXCROSS	n/a	n/a	n/a	n/a	n/a
747.031	n/a	RESPONSE	        M4	2	19	G4	press
747.212	n/a	RESPONSE	        M4	2	16	E4	release
747.667	n/a	RESPONSE	        M4	2	20	G#4	press
747.703	n/a	RESPONSE	        M4	2	19	G4	release
748.129	n/a	RESPONSE	        M4	2	19	G4	press
748.268	n/a	RESPONSE	        M4	2	20	G#4	release
748.567	n/a	RESPONSE	        M4	2	17	F4	press
748.708	n/a	RESPONSE	        M4	2	19	G4	release
748.959	n/a	RESPONSE	        M4	2	16	E4	press
749.077	n/a	RESPONSE	        M4	2	17	F4	release
749.603	n/a	RESPONSE	        M4	2	16	E4	release
753.894	6.325	CUE_LISTEN	        M2	1	n/a	n/a	n/a
760.219	7.758	FIXCROSS	n/a	n/a	n/a	n/a	n/a
767.977	6.317	CUE_PLAYBACK_BOTH_HANDS	        M2	1	n/a	n/a	n/a
768.957	n/a	RESPONSE	        M2	1	00	C3	press
768.964	n/a	RESPONSE	        M2	1	07	G3	press
768.973	n/a	RESPONSE	        M2	1	24	C5	press
769.882	n/a	RESPONSE	        M2	1	19	G4	press
770.043	n/a	RESPONSE	        M2	1	24	C5	release
770.144	n/a	RESPONSE	        M2	1	19	G4	release
770.177	n/a	RESPONSE	        M2	1	00	C3	release
770.297	n/a	RESPONSE	        M2	1	00	C3	press
770.308	n/a	RESPONSE	        M2	1	19	G4	press
770.759	n/a	RESPONSE	        M2	1	17	F4	press
770.91	n/a	RESPONSE	        M2	1	19	G4	release
771.003	n/a	RESPONSE	        M2	1	00	C3	release
771.083	n/a	RESPONSE	        M2	1	07	G3	release
771.144	n/a	RESPONSE	        M2	1	17	F4	release
771.196	n/a	RESPONSE	        M2	1	16	E4	press
771.198	n/a	RESPONSE	        M2	1	00	C3	press
771.2	n/a	RESPONSE	        M2	1	07	G3	press
771.639	n/a	RESPONSE	        M2	1	17	F4	press
771.73	n/a	RESPONSE	        M2	1	16	E4	release
771.903	n/a	RESPONSE	        M2	1	00	C3	release
771.974	n/a	RESPONSE	        M2	1	07	G3	release
771.977	n/a	RESPONSE	        M2	1	17	F4	release
772.017	n/a	RESPONSE	        M2	1	19	G4	press
772.019	n/a	RESPONSE	        M2	1	00	C3	press
772.039	n/a	RESPONSE	        M2	1	07	G3	press
772.58	n/a	RESPONSE	        M2	1	19	G4	release
772.602	n/a	RESPONSE	        M2	1	00	C3	release
772.833	n/a	RESPONSE	        M2	1	24	C5	press
772.854	n/a	RESPONSE	        M2	1	00	C3	press
773.278	n/a	RESPONSE	        M2	1	19	G4	press
773.377	n/a	RESPONSE	        M2	1	24	C5	release
773.508	n/a	RESPONSE	        M2	1	00	C3	release
773.55	n/a	RESPONSE	        M2	1	19	G4	release
773.622	n/a	RESPONSE	        M2	1	07	G3	release
773.682	n/a	RESPONSE	        M2	1	00	C3	press
773.693	n/a	RESPONSE	        M2	1	07	G3	press
773.696	n/a	RESPONSE	        M2	1	19	G4	press
774.156	n/a	RESPONSE	        M2	1	17	F4	press
774.294	7.758	FIXCROSS	n/a	n/a	n/a	n/a	n/a
774.317	n/a	RESPONSE	        M2	1	19	G4	release
774.408	n/a	RESPONSE	        M2	1	00	C3	release
774.469	n/a	RESPONSE	        M2	1	07	G3	release
774.5	n/a	RESPONSE	        M2	1	17	F4	release
774.562	n/a	RESPONSE	        M2	1	16	E4	press
774.573	n/a	RESPONSE	        M2	1	00	C3	press
774.575	n/a	RESPONSE	        M2	1	07	G3	press
774.995	n/a	RESPONSE	        M2	1	14	D4	press
775.109	n/a	RESPONSE	        M2	1	16	E4	release
775.238	n/a	RESPONSE	        M2	1	00	C3	release
775.319	n/a	RESPONSE	        M2	1	07	G3	release
775.392	n/a	RESPONSE	        M2	1	00	C3	press
775.402	n/a	RESPONSE	        M2	1	07	G3	press
775.405	n/a	RESPONSE	        M2	1	12	C4	press
776.187	n/a	RESPONSE	        M2	1	14	D4	release
776.298	n/a	RESPONSE	        M2	1	12	C4	release
776.339	n/a	RESPONSE	        M2	1	00	C3	release
778.6	n/a	RESPONSE	        M2	1	07	G3	release
782.052	6.317	CUE_LISTEN	        M2	2	n/a	n/a	n/a
788.369	7.758	FIXCROSS	n/a	n/a	n/a	n/a	n/a
796.127	6.325	CUE_PLAYBACK_BOTH_HANDS	        M2	2	n/a	n/a	n/a
797.036	n/a	RESPONSE	        M2	2	00	C3	press
797.038	n/a	RESPONSE	        M2	2	07	G3	press
797.054	n/a	RESPONSE	        M2	2	12	C4	press
797.452	n/a	RESPONSE	        M2	2	14	D4	press
797.593	n/a	RESPONSE	        M2	2	12	C4	release
797.697	n/a	RESPONSE	        M2	2	00	C3	release
797.714	n/a	RESPONSE	        M2	2	14	D4	release
797.749	n/a	RESPONSE	        M2	2	07	G3	release
797.858	n/a	RESPONSE	        M2	2	00	C3	press
797.869	n/a	RESPONSE	        M2	2	07	G3	press
797.88	n/a	RESPONSE	        M2	2	16	E4	press
798.255	n/a	RESPONSE	        M2	2	14	D4	press
798.318	n/a	RESPONSE	        M2	2	16	E4	release
798.437	n/a	RESPONSE	        M2	2	00	C3	release
798.513	n/a	RESPONSE	        M2	2	14	D4	release
798.52	n/a	RESPONSE	        M2	2	07	G3	release
798.653	n/a	RESPONSE	        M2	2	16	E4	press
798.655	n/a	RESPONSE	        M2	2	00	C3	press
798.664	n/a	RESPONSE	        M2	2	07	G3	press
799.068	n/a	RESPONSE	        M2	2	17	F4	press
799.165	n/a	RESPONSE	        M2	2	16	E4	release
799.297	n/a	RESPONSE	        M2	2	00	C3	release
799.32	n/a	RESPONSE	        M2	2	17	F4	release
799.352	n/a	RESPONSE	        M2	2	07	G3	release
799.457	n/a	RESPONSE	        M2	2	19	G4	press
799.462	n/a	RESPONSE	        M2	2	00	C3	press
799.483	n/a	RESPONSE	        M2	2	07	G3	press
800.048	n/a	RESPONSE	        M2	2	00	C3	release
800.079	n/a	RESPONSE	        M2	2	19	G4	release
800.292	n/a	RESPONSE	        M2	2	00	C3	press
800.312	n/a	RESPONSE	        M2	2	16	E4	press
800.353	n/a	RESPONSE	        M2	2	14	D4	press
800.524	n/a	RESPONSE	        M2	2	14	D4	release
800.766	n/a	RESPONSE	        M2	2	19	G4	press
800.867	n/a	RESPONSE	        M2	2	16	E4	release
800.938	n/a	RESPONSE	        M2	2	00	C3	release
801.009	n/a	RESPONSE	        M2	2	07	G3	release
801.05	n/a	RESPONSE	        M2	2	19	G4	release
801.173	n/a	RESPONSE	        M2	2	00	C3	press
801.183	n/a	RESPONSE	        M2	2	19	G4	press
801.194	n/a	RESPONSE	        M2	2	07	G3	press
801.608	n/a	RESPONSE	        M2	2	17	F4	press
801.738	n/a	RESPONSE	        M2	2	19	G4	release
801.884	n/a	RESPONSE	        M2	2	00	C3	release
801.915	n/a	RESPONSE	        M2	2	17	F4	release
801.967	n/a	RESPONSE	        M2	2	07	G3	release
802.028	n/a	RESPONSE	        M2	2	16	E4	press
802.03	n/a	RESPONSE	        M2	2	00	C3	press
802.04	n/a	RESPONSE	        M2	2	07	G3	press
802.452	7.758	FIXCROSS	n/a	n/a	n/a	n/a	n/a
802.462	n/a	RESPONSE	        M2	2	14	D4	press
802.563	n/a	RESPONSE	        M2	2	16	E4	release
802.687	n/a	RESPONSE	        M2	2	00	C3	release
802.747	n/a	RESPONSE	        M2	2	07	G3	release
802.767	n/a	RESPONSE	        M2	2	14	D4	release
802.858	n/a	RESPONSE	        M2	2	12	C4	press
802.86	n/a	RESPONSE	        M2	2	00	C3	press
802.863	n/a	RESPONSE	        M2	2	07	G3	press
803.502	n/a	RESPONSE	        M2	2	00	C3	release
803.523	n/a	RESPONSE	        M2	2	12	C4	release
810.211	6.317	CUE_LISTEN	        M8	1	n/a	n/a	n/a
813.983	n/a	RESPONSE	        M8	1	07	G3	release
816.527	7.758	FIXCROSS	n/a	n/a	n/a	n/a	n/a
824.286	6.325	CUE_PLAYBACK_BOTH_HANDS	        M8	1	n/a	n/a	n/a
825.213	n/a	RESPONSE	        M8	1	17	F4	press
825.484	n/a	RESPONSE	        M8	1	21	A4	press
825.685	n/a	RESPONSE	        M8	1	17	F4	release
825.757	n/a	RESPONSE	        M8	1	24	C5	press
825.878	n/a	RESPONSE	        M8	1	21	A4	release
827.143	n/a	RESPONSE	        M8	1	24	C5	release
830.359	n/a	RESPONSE	        M8	1	16	E4	press
830.611	7.758	FIXCROSS	n/a	n/a	n/a	n/a	n/a
830.62	n/a	RESPONSE	        M8	1	19	G4	press
830.742	n/a	RESPONSE	        M8	1	16	E4	release
830.875	n/a	RESPONSE	        M8	1	23	B4	press
830.934	n/a	RESPONSE	        M8	1	19	G4	release
831.116	n/a	RESPONSE	        M8	1	23	B4	release
831.308	n/a	RESPONSE	        M8	1	23	B4	press
831.758	n/a	RESPONSE	        M8	1	18	F#4	press
831.782	n/a	RESPONSE	        M8	1	09	A3	press
832.272	n/a	RESPONSE	        M8	1	12	C4	press
832.565	n/a	RESPONSE	        M8	1	09	A3	release
832.574	n/a	RESPONSE	        M8	1	23	B4	release
832.688	n/a	RESPONSE	        M8	1	21	A4	press
832.767	n/a	RESPONSE	        M8	1	16	E4	press
832.778	n/a	RESPONSE	        M8	1	18	F#4	release
832.899	n/a	RESPONSE	        M8	1	12	C4	release
832.993	n/a	RESPONSE	        M8	1	16	E4	release
833.182	n/a	RESPONSE	        M8	1	16	E4	press
833.573	n/a	RESPONSE	        M8	1	15	D#4	press
833.594	n/a	RESPONSE	        M8	1	23	B4	press
833.667	n/a	RESPONSE	        M8	1	16	E4	release
833.678	n/a	RESPONSE	        M8	1	21	A4	release
834.238	n/a	RESPONSE	        M8	1	11	B3	press
834.259	n/a	RESPONSE	        M8	1	21	A4	press
834.3	n/a	RESPONSE	        M8	1	15	D#4	release
834.513	n/a	RESPONSE	        M8	1	19	G4	press
834.685	n/a	RESPONSE	        M8	1	23	B4	release
834.824	n/a	RESPONSE	        M8	1	18	F#4	press
834.887	n/a	RESPONSE	        M8	1	21	A4	release
834.897	n/a	RESPONSE	        M8	1	19	G4	release
835.108	n/a	RESPONSE	        M8	1	16	E4	press
835.169	n/a	RESPONSE	        M8	1	18	F#4	release
835.64	n/a	RESPONSE	        M8	1	12	C4	press
835.652	n/a	RESPONSE	        M8	1	11	B3	release
836.396	n/a	RESPONSE	        M8	1	11	B3	press
836.428	n/a	RESPONSE	        M8	1	12	C4	release
836.968	n/a	RESPONSE	        M8	1	11	B3	release
836.993	n/a	RESPONSE	        M8	1	16	E4	release
838.369	6.317	CUE_LISTEN	        M8	2	n/a	n/a	n/a
844.686	7.758	FIXCROSS	n/a	n/a	n/a	n/a	n/a
852.444	6.317	CUE_PLAYBACK_BOTH_HANDS	        M8	2	n/a	n/a	n/a
852.895	n/a	RESPONSE	        M8	2	16	E4	press
853.147	n/a	RESPONSE	        M8	2	19	G4	press
853.269	n/a	RESPONSE	        M8	2	16	E4	release
853.392	n/a	RESPONSE	        M8	2	23	B4	press
853.5	n/a	RESPONSE	        M8	2	19	G4	release
853.652	n/a	RESPONSE	        M8	2	23	B4	release
853.873	n/a	RESPONSE	        M8	2	23	B4	press
854.284	n/a	RESPONSE	        M8	2	18	F#4	press
854.327	n/a	RESPONSE	        M8	2	09	A3	press
854.377	n/a	RESPONSE	        M8	2	23	B4	release
854.778	n/a	RESPONSE	        M8	2	12	C4	press
855.049	n/a	RESPONSE	        M8	2	09	A3	release
855.202	n/a	RESPONSE	        M8	2	21	A4	press
855.214	n/a	RESPONSE	        M8	2	16	E4	press
855.383	n/a	RESPONSE	        M8	2	12	C4	release
855.474	n/a	RESPONSE	        M8	2	16	E4	release
855.695	n/a	RESPONSE	        M8	2	16	E4	press
856.117	n/a	RESPONSE	        M8	2	15	D#4	press
856.188	n/a	RESPONSE	        M8	2	21	A4	release
856.383	n/a	RESPONSE	        M8	2	16	E4	release
856.883	n/a	RESPONSE	        M8	2	23	B4	press
856.886	n/a	RESPONSE	        M8	2	11	B3	press
856.959	n/a	RESPONSE	        M8	2	15	D#4	release
857.01	n/a	RESPONSE	        M8	2	18	F#4	release
857.153	n/a	RESPONSE	        M8	2	21	A4	press
857.365	n/a	RESPONSE	        M8	2	19	G4	press
857.518	n/a	RESPONSE	        M8	2	23	B4	release
857.703	n/a	RESPONSE	        M8	2	18	F#4	press
857.732	n/a	RESPONSE	        M8	2	21	A4	release
857.739	n/a	RESPONSE	        M8	2	19	G4	release
857.923	n/a	RESPONSE	        M8	2	19	G4	press
858.102	n/a	RESPONSE	        M8	2	18	F#4	release
858.498	n/a	RESPONSE	        M8	2	12	C4	press
858.628	n/a	RESPONSE	        M8	2	11	B3	release
858.761	7.758	FIXCROSS	n/a	n/a	n/a	n/a	n/a
859.099	n/a	RESPONSE	        M8	2	16	E4	press
859.175	n/a	RESPONSE	        M8	2	11	B3	press
859.304	n/a	RESPONSE	        M8	2	19	G4	release
859.348	n/a	RESPONSE	        M8	2	12	C4	release
859.788	n/a	RESPONSE	        M8	2	07	G3	press
860.094	n/a	RESPONSE	        M8	2	11	B3	release
860.285	n/a	RESPONSE	        M8	2	07	G3	release
860.387	n/a	RESPONSE	        M8	2	07	G3	press
860.868	n/a	RESPONSE	        M8	2	04	E3	press
860.969	n/a	RESPONSE	        M8	2	07	G3	release
861.6	n/a	RESPONSE	        M8	2	04	E3	release
861.634	n/a	RESPONSE	        M8	2	16	E4	release
866.519	6.325	CUE_LISTEN	        M6	1	n/a	n/a	n/a
872.844	7.758	FIXCROSS	n/a	n/a	n/a	n/a	n/a
880.602	6.317	CUE_PLAYBACK_RIGHT_HAND	        M6	1	n/a	n/a	n/a
881.52	n/a	RESPONSE	        M6	1	12	C4	press
881.743	n/a	RESPONSE	        M6	1	10	A#3	press
881.844	n/a	RESPONSE	        M6	1	12	C4	release
882.025	n/a	RESPONSE	        M6	1	12	C4	press
882.108	n/a	RESPONSE	        M6	1	10	A#3	release
883.0	n/a	RESPONSE	        M6	1	17	F4	press
883.139	n/a	RESPONSE	        M6	1	12	C4	release
883.26	n/a	RESPONSE	        M6	1	19	G4	press
883.332	n/a	RESPONSE	        M6	1	17	F4	release
883.495	n/a	RESPONSE	        M6	1	17	F4	press
883.594	n/a	RESPONSE	        M6	1	19	G4	release
884.648	n/a	RESPONSE	        M6	1	17	F4	release
884.887	n/a	RESPONSE	        M6	1	13	C#4	press
885.089	n/a	RESPONSE	        M6	1	11	B3	press
885.17	n/a	RESPONSE	        M6	1	13	C#4	release
885.343	n/a	RESPONSE	        M6	1	13	C#4	press
885.432	n/a	RESPONSE	        M6	1	11	B3	release
885.923	n/a	RESPONSE	        M6	1	14	D4	press
885.965	n/a	RESPONSE	        M6	1	13	C#4	release
886.125	n/a	RESPONSE	        M6	1	16	E4	press
886.217	n/a	RESPONSE	        M6	1	14	D4	release
886.348	n/a	RESPONSE	        M6	1	14	D4	press
886.482	n/a	RESPONSE	        M6	1	16	E4	release
886.67	n/a	RESPONSE	        M6	1	16	E4	press
886.817	n/a	RESPONSE	        M6	1	14	D4	release
886.919	7.758	FIXCROSS	n/a	n/a	n/a	n/a	n/a
887.295	n/a	RESPONSE	        M6	1	16	E4	release
894.678	6.317	CUE_LISTEN	        M6	2	n/a	n/a	n/a
900.994	7.758	FIXCROSS	n/a	n/a	n/a	n/a	n/a
908.752	202.974	CUE_PLAYBACK_RIGHT_HAND	        M6	2	n/a	n/a	n/a
913.245	n/a	FIXCROSS	n/a	n/a	n/a	n/a	n/a
975.413	n/a	RESPONSE	        M6	2	04	E3	press
976.175	n/a	RESPONSE	        M6	2	04	E3	release
997.072	n/a	RESPONSE	        M6	2	04	E3	press
1012.609	n/a	RESPONSE	        M6	2	04	E3	release
1015.702	n/a	RESPONSE	        M6	2	04	E3	press
1016.396	n/a	RESPONSE	        M6	2	04	E3	release
1018.975	n/a	RESPONSE	        M6	2	04	E3	press
1020.769	n/a	RESPONSE	        M6	2	04	E3	release
