onset	duration	trial_type	braille_stimulus	targets	response_count
2.017	2.008	CUE_6_DOT	n/a	n/a	n/a
7.017	1.008	FIXCROSS	n/a	n/a	n/a
8.033	5.008	6_DOT_DETECTION	POD##	2	n/a
12.695	n/a	RESPONSE	n/a	n/a	1/2
13.067	1.008	FIXCROSS	n/a	n/a	n/a
14.083	5.008	6_DOT_DETECTION	SSTMT	0	n/a
19.117	1.008	FIXCROSS	n/a	n/a	n/a
20.133	5.008	6_DOT_DETECTION	##KOT	2	n/a
22.922	n/a	RESPONSE	n/a	n/a	1/2
25.167	1.008	FIXCROSS	n/a	n/a	n/a
26.183	5.008	6_DOT_DETECTION	OCPPC	0	n/a
31.217	1.008	FIXCROSS	n/a	n/a	n/a
32.233	5.008	6_DOT_DETECTION	AKT##	2	n/a
35.402	n/a	RESPONSE	n/a	n/a	1/2
36.43	n/a	RESPONSE	n/a	n/a	2/2
37.267	1.008	FIXCROSS	n/a	n/a	n/a
38.283	5.009	6_DOT_DETECTION	ODŁSE	0	n/a
43.317	1.008	FIXCROSS	n/a	n/a	n/a
44.333	5.008	6_DOT_DETECTION	#LMCI	1	n/a
46.653	n/a	RESPONSE	n/a	n/a	1/1
49.367	1.008	FIXCROSS	n/a	n/a	n/a
50.383	5.008	6_DOT_DETECTION	##MYK	2	n/a
51.709	n/a	RESPONSE	n/a	n/a	1/2
53.295	n/a	RESPONSE	n/a	n/a	2/2
57.425	2.008	CUE_REST	n/a	n/a	n/a
62.425	1.008	FIXCROSS	n/a	n/a	n/a
68.475	1.008	FIXCROSS	n/a	n/a	n/a
75.533	2.008	CUE_6_DOT	n/a	n/a	n/a
80.533	1.008	FIXCROSS	n/a	n/a	n/a
81.55	5.009	6_DOT_DETECTION	KUŁ##	2	n/a
85.172	n/a	RESPONSE	n/a	n/a	1/2
86.367	n/a	RESPONSE	n/a	n/a	2/2
86.583	1.008	FIXCROSS	n/a	n/a	n/a
87.6	5.008	6_DOT_DETECTION	OALDO	0	n/a
92.633	1.008	FIXCROSS	n/a	n/a	n/a
93.65	5.008	6_DOT_DETECTION	#TLI#	2	n/a
95.459	n/a	RESPONSE	n/a	n/a	1/2
97.343	n/a	RESPONSE	n/a	n/a	2/2
98.683	1.008	FIXCROSS	n/a	n/a	n/a
99.7	5.009	6_DOT_DETECTION	KAAE#	1	n/a
103.133	n/a	RESPONSE	n/a	n/a	1/1
104.733	1.008	FIXCROSS	n/a	n/a	n/a
105.75	5.008	6_DOT_DETECTION	#DLA#	2	n/a
107.199	n/a	RESPONSE	n/a	n/a	1/2
108.128	n/a	RESPONSE	n/a	n/a	2/2
109.697	n/a	RESPONSE	n/a	n/a	3/2
110.783	1.008	FIXCROSS	n/a	n/a	n/a
111.8	5.008	6_DOT_DETECTION	KCCDB	0	n/a
116.833	1.008	FIXCROSS	n/a	n/a	n/a
117.85	5.008	6_DOT_DETECTION	##OKO	2	n/a
118.959	n/a	RESPONSE	n/a	n/a	1/2
120.24	n/a	RESPONSE	n/a	n/a	2/2
122.883	1.008	FIXCROSS	n/a	n/a	n/a
123.9	5.008	6_DOT_DETECTION	TADMM	0	n/a
130.442	2.008	CUE_REST	n/a	n/a	n/a
136.942	1.008	FIXCROSS	n/a	n/a	n/a
142.992	1.008	FIXCROSS	n/a	n/a	n/a
150.55	2.008	CUE_6_DOT	n/a	n/a	n/a
157.05	1.008	FIXCROSS	n/a	n/a	n/a
158.067	5.008	6_DOT_DETECTION	AII#P	1	n/a
160.913	n/a	RESPONSE	n/a	n/a	1/1
163.1	1.008	FIXCROSS	n/a	n/a	n/a
164.116	5.009	6_DOT_DETECTION	#SAM#	2	n/a
167.837	n/a	RESPONSE	n/a	n/a	1/2
169.15	1.008	FIXCROSS	n/a	n/a	n/a
170.166	5.009	6_DOT_DETECTION	SUB#D	1	n/a
172.616	n/a	RESPONSE	n/a	n/a	1/1
175.2	1.008	FIXCROSS	n/a	n/a	n/a
176.217	5.008	6_DOT_DETECTION	#KOK#	2	n/a
177.063	n/a	RESPONSE	n/a	n/a	1/2
179.187	n/a	RESPONSE	n/a	n/a	2/2
181.25	1.008	FIXCROSS	n/a	n/a	n/a
182.267	5.008	6_DOT_DETECTION	TMSŁE	0	n/a
187.3	1.008	FIXCROSS	n/a	n/a	n/a
188.317	5.008	6_DOT_DETECTION	OTO##	2	n/a
191.928	n/a	RESPONSE	n/a	n/a	1/2
192.866	n/a	RESPONSE	n/a	n/a	2/2
193.35	1.008	FIXCROSS	n/a	n/a	n/a
194.366	5.009	6_DOT_DETECTION	#LDDO	1	n/a
199.4	1.008	FIXCROSS	n/a	n/a	n/a
200.416	5.009	6_DOT_DETECTION	##ODA	2	n/a
202.132	n/a	RESPONSE	n/a	n/a	1/2
206.958	2.008	CUE_REST	n/a	n/a	n/a
211.458	1.008	FIXCROSS	n/a	n/a	n/a
217.508	1.008	FIXCROSS	n/a	n/a	n/a
225.567	2.008	CUE_6_DOT	n/a	n/a	n/a
231.567	1.008	FIXCROSS	n/a	n/a	n/a
232.584	5.008	6_DOT_DETECTION	#KIM#	2	n/a
233.97	n/a	RESPONSE	n/a	n/a	1/2
236.408	n/a	RESPONSE	n/a	n/a	2/2
237.617	1.008	FIXCROSS	n/a	n/a	n/a
238.634	5.008	6_DOT_DETECTION	AK#OC	1	n/a
240.666	n/a	RESPONSE	n/a	n/a	1/1
243.667	1.008	FIXCROSS	n/a	n/a	n/a
244.684	5.008	6_DOT_DETECTION	CTP#C	1	n/a
248.108	n/a	RESPONSE	n/a	n/a	1/1
249.717	1.008	FIXCROSS	n/a	n/a	n/a
250.734	5.008	6_DOT_DETECTION	BAL##	2	n/a
254.012	n/a	RESPONSE	n/a	n/a	1/2
255.767	1.008	FIXCROSS	n/a	n/a	n/a
256.784	5.008	6_DOT_DETECTION	#KOC#	2	n/a
259.098	n/a	RESPONSE	n/a	n/a	1/2
260.602	n/a	RESPONSE	n/a	n/a	2/2
261.817	1.008	FIXCROSS	n/a	n/a	n/a
262.834	5.008	6_DOT_DETECTION	BO#BS	1	n/a
264.932	n/a	RESPONSE	n/a	n/a	1/1
267.867	1.008	FIXCROSS	n/a	n/a	n/a
268.884	5.008	6_DOT_DETECTION	#OBA#	2	n/a
270.538	n/a	RESPONSE	n/a	n/a	1/2
272.506	n/a	RESPONSE	n/a	n/a	2/2
273.917	1.008	FIXCROSS	n/a	n/a	n/a
274.934	5.008	6_DOT_DETECTION	CDLD#	1	n/a
276.935	n/a	RESPONSE	n/a	n/a	1/1
278.372	n/a	RESPONSE	n/a	n/a	2/1
281.975	2.008	CUE_REST	n/a	n/a	n/a
285.975	1.008	FIXCROSS	n/a	n/a	n/a
292.025	1.008	FIXCROSS	n/a	n/a	n/a
299.584	2.008	CUE_6_DOT	n/a	n/a	n/a
305.084	1.008	FIXCROSS	n/a	n/a	n/a
306.1	5.009	6_DOT_DETECTION	TE#DK	1	n/a
308.475	n/a	RESPONSE	n/a	n/a	1/1
311.134	1.008	FIXCROSS	n/a	n/a	n/a
312.15	5.008	6_DOT_DETECTION	##LAM	2	n/a
313.203	n/a	RESPONSE	n/a	n/a	1/2
314.61	n/a	RESPONSE	n/a	n/a	2/2
317.184	1.008	FIXCROSS	n/a	n/a	n/a
318.2	5.008	6_DOT_DETECTION	KUC##	2	n/a
320.668	n/a	RESPONSE	n/a	n/a	1/2
321.433	n/a	RESPONSE	n/a	n/a	2/2
323.234	1.008	FIXCROSS	n/a	n/a	n/a
324.25	5.008	6_DOT_DETECTION	ATDUL	0	n/a
329.284	1.008	FIXCROSS	n/a	n/a	n/a
330.3	5.008	6_DOT_DETECTION	##SYK	2	n/a
332.151	n/a	RESPONSE	n/a	n/a	1/2
335.334	1.008	FIXCROSS	n/a	n/a	n/a
336.35	5.008	6_DOT_DETECTION	LBDLS	0	n/a
341.384	1.008	FIXCROSS	n/a	n/a	n/a
342.4	5.008	6_DOT_DETECTION	LIC##	2	n/a
344.803	n/a	RESPONSE	n/a	n/a	1/2
345.916	n/a	RESPONSE	n/a	n/a	2/2
347.434	1.008	FIXCROSS	n/a	n/a	n/a
348.45	5.008	6_DOT_DETECTION	#BBTA	1	n/a
350.065	n/a	RESPONSE	n/a	n/a	1/1
354.492	2.008	CUE_REST	n/a	n/a	n/a
360.492	1.008	FIXCROSS	n/a	n/a	n/a
366.542	1.008	FIXCROSS	n/a	n/a	n/a
373.6	2.008	CUE_6_DOT	n/a	n/a	n/a
378.6	1.008	FIXCROSS	n/a	n/a	n/a
379.617	5.008	6_DOT_DETECTION	PAL##	2	n/a
381.092	n/a	RESPONSE	n/a	n/a	1/2
383.381	n/a	RESPONSE	n/a	n/a	2/2
384.65	1.008	FIXCROSS	n/a	n/a	n/a
385.667	5.008	6_DOT_DETECTION	ACCDB	0	n/a
389.036	n/a	RESPONSE	n/a	n/a	1/0
390.7	1.008	FIXCROSS	n/a	n/a	n/a
391.716	5.009	6_DOT_DETECTION	##PAŁ	2	n/a
393.025	n/a	RESPONSE	n/a	n/a	1/2
394.081	n/a	RESPONSE	n/a	n/a	2/2
396.75	1.008	FIXCROSS	n/a	n/a	n/a
397.766	5.009	6_DOT_DETECTION	CB#CL	1	n/a
400.431	n/a	RESPONSE	n/a	n/a	1/1
402.8	1.008	FIXCROSS	n/a	n/a	n/a
403.817	5.008	6_DOT_DETECTION	##BOK	2	n/a
405.092	n/a	RESPONSE	n/a	n/a	1/2
408.85	1.008	FIXCROSS	n/a	n/a	n/a
409.867	5.008	6_DOT_DETECTION	UUACO	0	n/a
414.9	1.008	FIXCROSS	n/a	n/a	n/a
415.917	5.008	6_DOT_DETECTION	ADAOD	0	n/a
420.95	1.008	FIXCROSS	n/a	n/a	n/a
421.967	5.008	6_DOT_DETECTION	#MOP#	2	n/a
423.436	n/a	RESPONSE	n/a	n/a	1/2
426.043	n/a	RESPONSE	n/a	n/a	2/2
428.008	2.008	CUE_REST	n/a	n/a	n/a
435.009	1.008	FIXCROSS	n/a	n/a	n/a
441.059	1.008	FIXCROSS	n/a	n/a	n/a
