onset	duration	trial_type	trial_number	stroop_condition	stim_text(PL)	stim_text(eng)	stim_color(PL)	stim_color(eng)	response_type	response_color
0.0	n/a	RESPONSE	n/a	n/a	n/a	n/a	n/a	n/a	n/a	n/a
0.0736	1.0167	ITI	n/a	n/a	n/a	n/a	n/a	n/a	n/a	n/a
1.0903	0.5	FIXCROSS	n/a	n/a	n/a	n/a	n/a	n/a	n/a	n/a
1.5903	0.9667	T_INK	1	Neutral	xxxxxxxxx	xxxxxxxxx	zielony	green	hit	n/a
2.5413	n/a	RESPONSE	n/a	n/a	n/a	n/a	n/a	n/a	n/a	green
2.557	0.5	FEEDBACK	n/a	n/a	n/a	n/a	n/a	n/a	n/a	n/a
3.057	1.0	ITI	n/a	n/a	n/a	n/a	n/a	n/a	n/a	n/a
4.057	0.5	FIXCROSS	n/a	n/a	n/a	n/a	n/a	n/a	n/a	n/a
4.557	0.8167	T_INK	2	Neutral	xxxxxxxxx	xxxxxxxxx	żółty	yellow	hit	n/a
5.3544	n/a	RESPONSE	n/a	n/a	n/a	n/a	n/a	n/a	n/a	yellow
5.3737	0.5	FEEDBACK	n/a	n/a	n/a	n/a	n/a	n/a	n/a	n/a
5.8737	1.0	ITI	n/a	n/a	n/a	n/a	n/a	n/a	n/a	n/a
6.8737	0.5	FIXCROSS	n/a	n/a	n/a	n/a	n/a	n/a	n/a	n/a
7.3737	0.75	T_INK	3	Neutral	xxxxxxx	xxxxxxx	czerwony	red	hit	n/a
8.1033	n/a	RESPONSE	n/a	n/a	n/a	n/a	n/a	n/a	n/a	red
8.1237	0.5	FEEDBACK	n/a	n/a	n/a	n/a	n/a	n/a	n/a	n/a
8.6237	1.0	ITI	n/a	n/a	n/a	n/a	n/a	n/a	n/a	n/a
9.6238	0.5	FIXCROSS	n/a	n/a	n/a	n/a	n/a	n/a	n/a	n/a
10.1237	1.05	T_INK	4	Incongruent	niebieski	blue	czerwony	red	hit	n/a
11.1561	n/a	RESPONSE	n/a	n/a	n/a	n/a	n/a	n/a	n/a	red
11.1738	0.5	FEEDBACK	n/a	n/a	n/a	n/a	n/a	n/a	n/a	n/a
11.6738	1.0	ITI	n/a	n/a	n/a	n/a	n/a	n/a	n/a	n/a
12.6738	0.5	FIXCROSS	n/a	n/a	n/a	n/a	n/a	n/a	n/a	n/a
13.1738	0.7	T_INK	5	Incongruent	czerwony	red	żółty	yellow	hit	n/a
13.8571	n/a	RESPONSE	n/a	n/a	n/a	n/a	n/a	n/a	n/a	yellow
13.8738	0.5	FEEDBACK	n/a	n/a	n/a	n/a	n/a	n/a	n/a	n/a
14.3738	1.0	ITI	n/a	n/a	n/a	n/a	n/a	n/a	n/a	n/a
15.3738	0.5	FIXCROSS	n/a	n/a	n/a	n/a	n/a	n/a	n/a	n/a
15.8738	0.6167	T_INK	6	Neutral	xxxxx	xxxxx	niebieski	blue	hit	n/a
16.4784	n/a	RESPONSE	n/a	n/a	n/a	n/a	n/a	n/a	n/a	blue
16.4905	0.5	FEEDBACK	n/a	n/a	n/a	n/a	n/a	n/a	n/a	n/a
16.9905	1.0	ITI	n/a	n/a	n/a	n/a	n/a	n/a	n/a	n/a
17.9905	0.5	FIXCROSS	n/a	n/a	n/a	n/a	n/a	n/a	n/a	n/a
18.4905	0.6167	T_INK	7	Incongruent	zielony	green	żółty	yellow	hit	n/a
19.0996	n/a	RESPONSE	n/a	n/a	n/a	n/a	n/a	n/a	n/a	yellow
19.1072	0.5	FEEDBACK	n/a	n/a	n/a	n/a	n/a	n/a	n/a	n/a
19.6072	1.0	ITI	n/a	n/a	n/a	n/a	n/a	n/a	n/a	n/a
20.6072	0.5	FIXCROSS	n/a	n/a	n/a	n/a	n/a	n/a	n/a	n/a
21.1072	0.4833	T_INK	8	Neutral	xxxxxxxx	xxxxxxxx	żółty	yellow	hit	n/a
21.577	n/a	RESPONSE	n/a	n/a	n/a	n/a	n/a	n/a	n/a	yellow
21.5906	0.5	FEEDBACK	n/a	n/a	n/a	n/a	n/a	n/a	n/a	n/a
22.0906	1.0	ITI	n/a	n/a	n/a	n/a	n/a	n/a	n/a	n/a
23.0906	0.5	FIXCROSS	n/a	n/a	n/a	n/a	n/a	n/a	n/a	n/a
23.5906	0.4	T_INK	9	Neutral	xxxxxxx	xxxxxxx	żółty	yellow	hit	n/a
23.9743	n/a	RESPONSE	n/a	n/a	n/a	n/a	n/a	n/a	n/a	yellow
23.9906	0.5	FEEDBACK	n/a	n/a	n/a	n/a	n/a	n/a	n/a	n/a
24.4906	1.0167	ITI	n/a	n/a	n/a	n/a	n/a	n/a	n/a	n/a
25.5073	0.5	FIXCROSS	n/a	n/a	n/a	n/a	n/a	n/a	n/a	n/a
26.0073	0.55	T_INK	10	Incongruent	żółty	yellow	niebieski	blue	hit	n/a
26.5477	n/a	RESPONSE	n/a	n/a	n/a	n/a	n/a	n/a	n/a	blue
26.5573	0.5	FEEDBACK	n/a	n/a	n/a	n/a	n/a	n/a	n/a	n/a
27.0573	1.0	ITI	n/a	n/a	n/a	n/a	n/a	n/a	n/a	n/a
28.0573	0.5	FIXCROSS	n/a	n/a	n/a	n/a	n/a	n/a	n/a	n/a
28.5573	0.7	T_INK	11	Incongruent	niebieski	blue	zielony	green	hit	n/a
29.2487	n/a	RESPONSE	n/a	n/a	n/a	n/a	n/a	n/a	n/a	green
29.2573	0.5	FEEDBACK	n/a	n/a	n/a	n/a	n/a	n/a	n/a	n/a
29.7573	1.0	ITI	n/a	n/a	n/a	n/a	n/a	n/a	n/a	n/a
30.7573	0.5	FIXCROSS	n/a	n/a	n/a	n/a	n/a	n/a	n/a	n/a
31.2573	0.7333	T_INK	12	Neutral	xxxxx	xxxxx	czerwony	red	hit	n/a
31.9818	n/a	RESPONSE	n/a	n/a	n/a	n/a	n/a	n/a	n/a	red
31.9907	0.5	FEEDBACK	n/a	n/a	n/a	n/a	n/a	n/a	n/a	n/a
32.4907	1.0	ITI	n/a	n/a	n/a	n/a	n/a	n/a	n/a	n/a
44.1927	n/a	RESPONSE	n/a	n/a	n/a	n/a	n/a	n/a	n/a	n/a
44.2575	1.0	ITI	n/a	n/a	n/a	n/a	n/a	n/a	n/a	n/a
45.2575	0.5	FIXCROSS	n/a	n/a	n/a	n/a	n/a	n/a	n/a	n/a
45.7575	0.8167	INK	1	Neutral	xxxxx	xxxxx	czerwony	red	hit	n/a
46.5582	n/a	RESPONSE	n/a	n/a	n/a	n/a	n/a	n/a	n/a	red
46.5742	1.0	ITI	n/a	n/a	n/a	n/a	n/a	n/a	n/a	n/a
47.5742	0.5	FIXCROSS	n/a	n/a	n/a	n/a	n/a	n/a	n/a	n/a
48.0742	0.8833	INK	2	Incongruent	żółty	yellow	zielony	green	hit	n/a
48.9395	n/a	RESPONSE	n/a	n/a	n/a	n/a	n/a	n/a	n/a	green
48.9576	1.0	ITI	n/a	n/a	n/a	n/a	n/a	n/a	n/a	n/a
49.9576	0.5	FIXCROSS	n/a	n/a	n/a	n/a	n/a	n/a	n/a	n/a
50.4576	0.5167	INK	3	Neutral	xxxxxxxx	xxxxxxxx	zielony	green	hit	n/a
50.9694	n/a	RESPONSE	n/a	n/a	n/a	n/a	n/a	n/a	n/a	green
50.9742	1.0	ITI	n/a	n/a	n/a	n/a	n/a	n/a	n/a	n/a
51.9743	0.5	FIXCROSS	n/a	n/a	n/a	n/a	n/a	n/a	n/a	n/a
52.4743	0.6667	INK	4	Incongruent	czerwony	red	żółty	yellow	hit	n/a
53.1271	n/a	RESPONSE	n/a	n/a	n/a	n/a	n/a	n/a	n/a	yellow
53.1409	1.0	ITI	n/a	n/a	n/a	n/a	n/a	n/a	n/a	n/a
54.141	0.5	FIXCROSS	n/a	n/a	n/a	n/a	n/a	n/a	n/a	n/a
54.641	0.4	INK	5	Neutral	xxxxxxxxx	xxxxxxxxx	żółty	yellow	hit	n/a
55.029	n/a	RESPONSE	n/a	n/a	n/a	n/a	n/a	n/a	n/a	yellow
55.041	1.0	ITI	n/a	n/a	n/a	n/a	n/a	n/a	n/a	n/a
56.041	0.5	FIXCROSS	n/a	n/a	n/a	n/a	n/a	n/a	n/a	n/a
56.541	0.6333	INK	6	Neutral	xxxxx	xxxxx	niebieski	blue	hit	n/a
57.1707	n/a	RESPONSE	n/a	n/a	n/a	n/a	n/a	n/a	n/a	blue
57.1743	1.0	ITI	n/a	n/a	n/a	n/a	n/a	n/a	n/a	n/a
58.1743	0.5	FIXCROSS	n/a	n/a	n/a	n/a	n/a	n/a	n/a	n/a
58.6743	0.5333	INK	7	Incongruent	żółty	yellow	niebieski	blue	hit	n/a
59.2005	n/a	RESPONSE	n/a	n/a	n/a	n/a	n/a	n/a	n/a	blue
59.2077	1.0	ITI	n/a	n/a	n/a	n/a	n/a	n/a	n/a	n/a
60.2077	0.5	FIXCROSS	n/a	n/a	n/a	n/a	n/a	n/a	n/a	n/a
60.7077	0.4	INK	8	Neutral	xxxxxxxx	xxxxxxxx	niebieski	blue	hit	n/a
61.1026	n/a	RESPONSE	n/a	n/a	n/a	n/a	n/a	n/a	n/a	blue
61.1077	1.0	ITI	n/a	n/a	n/a	n/a	n/a	n/a	n/a	n/a
62.1077	0.5	FIXCROSS	n/a	n/a	n/a	n/a	n/a	n/a	n/a	n/a
62.6077	0.6333	INK	9	Incongruent	żółty	yellow	czerwony	red	hit	n/a
63.2283	n/a	RESPONSE	n/a	n/a	n/a	n/a	n/a	n/a	n/a	red
63.2411	1.0	ITI	n/a	n/a	n/a	n/a	n/a	n/a	n/a	n/a
64.2411	0.5	FIXCROSS	n/a	n/a	n/a	n/a	n/a	n/a	n/a	n/a
64.7411	0.5833	INK	10	Incongruent	zielony	green	żółty	yellow	hit	n/a
65.306	n/a	RESPONSE	n/a	n/a	n/a	n/a	n/a	n/a	n/a	yellow
65.3244	1.0	ITI	n/a	n/a	n/a	n/a	n/a	n/a	n/a	n/a
66.3244	0.5	FIXCROSS	n/a	n/a	n/a	n/a	n/a	n/a	n/a	n/a
66.8244	0.6833	INK	11	Incongruent	czerwony	red	zielony	green	hit	n/a
67.4956	n/a	RESPONSE	n/a	n/a	n/a	n/a	n/a	n/a	n/a	green
67.5078	1.0	ITI	n/a	n/a	n/a	n/a	n/a	n/a	n/a	n/a
68.5078	0.5	FIXCROSS	n/a	n/a	n/a	n/a	n/a	n/a	n/a	n/a
69.0078	0.75	INK	12	Incongruent	zielony	green	czerwony	red	hit	n/a
69.7492	n/a	RESPONSE	n/a	n/a	n/a	n/a	n/a	n/a	n/a	red
69.7578	1.0	ITI	n/a	n/a	n/a	n/a	n/a	n/a	n/a	n/a
70.7578	0.5	FIXCROSS	n/a	n/a	n/a	n/a	n/a	n/a	n/a	n/a
71.2578	0.5167	INK	13	Incongruent	niebieski	blue	czerwony	red	hit	n/a
71.7631	n/a	RESPONSE	n/a	n/a	n/a	n/a	n/a	n/a	n/a	red
71.7745	1.0	ITI	n/a	n/a	n/a	n/a	n/a	n/a	n/a	n/a
72.7745	0.5	FIXCROSS	n/a	n/a	n/a	n/a	n/a	n/a	n/a	n/a
73.2745	0.65	INK	14	Incongruent	czerwony	red	żółty	yellow	hit	n/a
73.9208	n/a	RESPONSE	n/a	n/a	n/a	n/a	n/a	n/a	n/a	yellow
73.9245	1.0	ITI	n/a	n/a	n/a	n/a	n/a	n/a	n/a	n/a
74.9245	0.5	FIXCROSS	n/a	n/a	n/a	n/a	n/a	n/a	n/a	n/a
75.4245	0.6833	INK	15	Incongruent	niebieski	blue	zielony	green	incorrect	n/a
76.0944	n/a	RESPONSE	n/a	n/a	n/a	n/a	n/a	n/a	n/a	yellow
76.1079	1.0	ITI	n/a	n/a	n/a	n/a	n/a	n/a	n/a	n/a
77.1079	0.5	FIXCROSS	n/a	n/a	n/a	n/a	n/a	n/a	n/a	n/a
77.6079	0.8	INK	16	Incongruent	zielony	green	czerwony	red	hit	n/a
78.3959	n/a	RESPONSE	n/a	n/a	n/a	n/a	n/a	n/a	n/a	red
78.4079	1.0	ITI	n/a	n/a	n/a	n/a	n/a	n/a	n/a	n/a
79.4079	0.5	FIXCROSS	n/a	n/a	n/a	n/a	n/a	n/a	n/a	n/a
79.9079	0.7667	INK	17	Incongruent	niebieski	blue	zielony	green	hit	n/a
80.6655	n/a	RESPONSE	n/a	n/a	n/a	n/a	n/a	n/a	n/a	green
80.6746	1.0	ITI	n/a	n/a	n/a	n/a	n/a	n/a	n/a	n/a
81.6746	0.5	FIXCROSS	n/a	n/a	n/a	n/a	n/a	n/a	n/a	n/a
82.1746	0.5667	INK	18	Neutral	xxxxxxx	xxxxxxx	niebieski	blue	hit	n/a
82.7274	n/a	RESPONSE	n/a	n/a	n/a	n/a	n/a	n/a	n/a	blue
82.7413	1.0	ITI	n/a	n/a	n/a	n/a	n/a	n/a	n/a	n/a
83.7413	0.5	FIXCROSS	n/a	n/a	n/a	n/a	n/a	n/a	n/a	n/a
84.2413	0.5833	INK	19	Neutral	xxxxxxx	xxxxxxx	niebieski	blue	hit	n/a
84.8051	n/a	RESPONSE	n/a	n/a	n/a	n/a	n/a	n/a	n/a	blue
84.8247	1.0	ITI	n/a	n/a	n/a	n/a	n/a	n/a	n/a	n/a
85.8247	0.5	FIXCROSS	n/a	n/a	n/a	n/a	n/a	n/a	n/a	n/a
86.3247	0.4834	INK	20	Incongruent	żółty	yellow	niebieski	blue	hit	n/a
86.803	n/a	RESPONSE	n/a	n/a	n/a	n/a	n/a	n/a	n/a	blue
86.808	1.0	ITI	n/a	n/a	n/a	n/a	n/a	n/a	n/a	n/a
87.808	0.5	FIXCROSS	n/a	n/a	n/a	n/a	n/a	n/a	n/a	n/a
88.308	0.5667	INK	21	Neutral	xxxxxxx	xxxxxxx	żółty	yellow	hit	n/a
88.8647	n/a	RESPONSE	n/a	n/a	n/a	n/a	n/a	n/a	n/a	yellow
88.8747	1.0333	ITI	n/a	n/a	n/a	n/a	n/a	n/a	n/a	n/a
89.9081	0.5333	FIXCROSS	n/a	n/a	n/a	n/a	n/a	n/a	n/a	n/a
90.4414	0.6667	INK	22	Neutral	xxxxxxxx	xxxxxxxx	niebieski	blue	hit	n/a
91.0703	n/a	RESPONSE	n/a	n/a	n/a	n/a	n/a	n/a	n/a	blue
91.1081	1.0333	ITI	n/a	n/a	n/a	n/a	n/a	n/a	n/a	n/a
92.1414	0.5333	FIXCROSS	n/a	n/a	n/a	n/a	n/a	n/a	n/a	n/a
92.6748	0.5667	INK	23	Incongruent	czerwony	red	niebieski	blue	hit	n/a
93.2122	n/a	RESPONSE	n/a	n/a	n/a	n/a	n/a	n/a	n/a	blue
93.2414	1.0333	ITI	n/a	n/a	n/a	n/a	n/a	n/a	n/a	n/a
94.2748	0.5333	FIXCROSS	n/a	n/a	n/a	n/a	n/a	n/a	n/a	n/a
94.8081	0.4167	INK	24	Neutral	xxxxxxx	xxxxxxx	niebieski	blue	hit	n/a
95.1939	n/a	RESPONSE	n/a	n/a	n/a	n/a	n/a	n/a	n/a	blue
95.2248	1.0333	ITI	n/a	n/a	n/a	n/a	n/a	n/a	n/a	n/a
96.2581	0.5333	FIXCROSS	n/a	n/a	n/a	n/a	n/a	n/a	n/a	n/a
96.7915	0.7333	INK	25	Neutral	xxxxxxx	xxxxxxx	żółty	yellow	hit	n/a
97.4955	n/a	RESPONSE	n/a	n/a	n/a	n/a	n/a	n/a	n/a	yellow
97.5248	1.0334	ITI	n/a	n/a	n/a	n/a	n/a	n/a	n/a	n/a
98.5582	0.5333	FIXCROSS	n/a	n/a	n/a	n/a	n/a	n/a	n/a	n/a
99.0915	0.4167	INK	26	Neutral	xxxxxxx	xxxxxxx	żółty	yellow	hit	n/a
99.4773	n/a	RESPONSE	n/a	n/a	n/a	n/a	n/a	n/a	n/a	yellow
99.5082	1.0333	ITI	n/a	n/a	n/a	n/a	n/a	n/a	n/a	n/a
100.5415	0.5333	FIXCROSS	n/a	n/a	n/a	n/a	n/a	n/a	n/a	n/a
101.0749	0.65	INK	27	Incongruent	niebieski	blue	żółty	yellow	hit	n/a
101.683	n/a	RESPONSE	n/a	n/a	n/a	n/a	n/a	n/a	n/a	yellow
101.7249	1.0334	ITI	n/a	n/a	n/a	n/a	n/a	n/a	n/a	n/a
102.7582	0.5333	FIXCROSS	n/a	n/a	n/a	n/a	n/a	n/a	n/a	n/a
103.2915	0.6333	INK	28	Incongruent	zielony	green	czerwony	red	hit	n/a
103.8886	n/a	RESPONSE	n/a	n/a	n/a	n/a	n/a	n/a	n/a	red
103.9249	1.0333	ITI	n/a	n/a	n/a	n/a	n/a	n/a	n/a	n/a
104.9582	0.5333	FIXCROSS	n/a	n/a	n/a	n/a	n/a	n/a	n/a	n/a
105.4916	0.6	INK	29	Neutral	xxxxxxx	xxxxxxx	czerwony	red	hit	n/a
106.0463	n/a	RESPONSE	n/a	n/a	n/a	n/a	n/a	n/a	n/a	red
106.0916	1.0333	ITI	n/a	n/a	n/a	n/a	n/a	n/a	n/a	n/a
107.1249	0.5333	FIXCROSS	n/a	n/a	n/a	n/a	n/a	n/a	n/a	n/a
107.6583	0.7	INK	30	Incongruent	żółty	yellow	zielony	green	hit	n/a
108.3159	n/a	RESPONSE	n/a	n/a	n/a	n/a	n/a	n/a	n/a	green
108.3583	1.0333	ITI	n/a	n/a	n/a	n/a	n/a	n/a	n/a	n/a
109.3916	0.5333	FIXCROSS	n/a	n/a	n/a	n/a	n/a	n/a	n/a	n/a
109.925	0.4167	INK	31	Neutral	xxxxxxxxx	xxxxxxxxx	zielony	green	hit	n/a
110.3136	n/a	RESPONSE	n/a	n/a	n/a	n/a	n/a	n/a	n/a	green
110.3416	1.0333	ITI	n/a	n/a	n/a	n/a	n/a	n/a	n/a	n/a
111.375	0.5333	FIXCROSS	n/a	n/a	n/a	n/a	n/a	n/a	n/a	n/a
111.9083	0.95	INK	32	Neutral	xxxxx	xxxxx	czerwony	red	hit	n/a
112.823	n/a	RESPONSE	n/a	n/a	n/a	n/a	n/a	n/a	n/a	red
112.8583	1.0333	ITI	n/a	n/a	n/a	n/a	n/a	n/a	n/a	n/a
113.8917	0.5333	FIXCROSS	n/a	n/a	n/a	n/a	n/a	n/a	n/a	n/a
114.425	0.5	INK	33	Incongruent	niebieski	blue	czerwony	red	hit	n/a
114.8848	n/a	RESPONSE	n/a	n/a	n/a	n/a	n/a	n/a	n/a	red
114.925	1.0334	ITI	n/a	n/a	n/a	n/a	n/a	n/a	n/a	n/a
115.9584	0.5333	FIXCROSS	n/a	n/a	n/a	n/a	n/a	n/a	n/a	n/a
116.4917	0.4667	INK	34	Neutral	xxxxx	xxxxx	czerwony	red	hit	n/a
116.9306	n/a	RESPONSE	n/a	n/a	n/a	n/a	n/a	n/a	n/a	red
116.9584	1.0333	ITI	n/a	n/a	n/a	n/a	n/a	n/a	n/a	n/a
117.9917	0.5333	FIXCROSS	n/a	n/a	n/a	n/a	n/a	n/a	n/a	n/a
118.5251	0.9333	INK	35	Incongruent	niebieski	blue	żółty	yellow	hit	n/a
119.424	n/a	RESPONSE	n/a	n/a	n/a	n/a	n/a	n/a	n/a	yellow
119.4584	1.0333	ITI	n/a	n/a	n/a	n/a	n/a	n/a	n/a	n/a
120.4918	0.5333	FIXCROSS	n/a	n/a	n/a	n/a	n/a	n/a	n/a	n/a
121.0251	1.0667	INK	36	Incongruent	niebieski	blue	czerwony	red	hit	n/a
122.0611	n/a	RESPONSE	n/a	n/a	n/a	n/a	n/a	n/a	n/a	red
122.0918	1.0333	ITI	n/a	n/a	n/a	n/a	n/a	n/a	n/a	n/a
123.1251	0.5333	FIXCROSS	n/a	n/a	n/a	n/a	n/a	n/a	n/a	n/a
123.6585	0.65	INK	37	Incongruent	zielony	green	niebieski	blue	incorrect	n/a
124.2667	n/a	RESPONSE	n/a	n/a	n/a	n/a	n/a	n/a	n/a	green
124.3085	1.0333	ITI	n/a	n/a	n/a	n/a	n/a	n/a	n/a	n/a
125.3418	0.5333	FIXCROSS	n/a	n/a	n/a	n/a	n/a	n/a	n/a	n/a
125.8752	0.7333	INK	38	Neutral	xxxxx	xxxxx	zielony	green	hit	n/a
126.5683	n/a	RESPONSE	n/a	n/a	n/a	n/a	n/a	n/a	n/a	green
126.6085	1.0333	ITI	n/a	n/a	n/a	n/a	n/a	n/a	n/a	n/a
127.6418	0.5333	FIXCROSS	n/a	n/a	n/a	n/a	n/a	n/a	n/a	n/a
128.1752	0.75	INK	39	Neutral	xxxxxxxxx	xxxxxxxxx	czerwony	red	hit	n/a
128.8858	n/a	RESPONSE	n/a	n/a	n/a	n/a	n/a	n/a	n/a	red
128.9252	1.0333	ITI	n/a	n/a	n/a	n/a	n/a	n/a	n/a	n/a
129.9585	0.5333	FIXCROSS	n/a	n/a	n/a	n/a	n/a	n/a	n/a	n/a
130.4919	0.8	INK	40	Incongruent	czerwony	red	zielony	green	hit	n/a
131.2513	n/a	RESPONSE	n/a	n/a	n/a	n/a	n/a	n/a	n/a	green
131.2919	1.0334	ITI	n/a	n/a	n/a	n/a	n/a	n/a	n/a	n/a
132.3252	0.5333	FIXCROSS	n/a	n/a	n/a	n/a	n/a	n/a	n/a	n/a
132.8586	0.4667	INK	41	Neutral	xxxxxxxxx	xxxxxxxxx	żółty	yellow	hit	n/a
133.297	n/a	RESPONSE	n/a	n/a	n/a	n/a	n/a	n/a	n/a	yellow
133.3253	1.0333	ITI	n/a	n/a	n/a	n/a	n/a	n/a	n/a	n/a
134.3586	0.5333	FIXCROSS	n/a	n/a	n/a	n/a	n/a	n/a	n/a	n/a
134.8919	0.6833	INK	42	Neutral	xxxxxxx	xxxxxxx	czerwony	red	hit	n/a
135.5346	n/a	RESPONSE	n/a	n/a	n/a	n/a	n/a	n/a	n/a	red
135.5753	1.0334	ITI	n/a	n/a	n/a	n/a	n/a	n/a	n/a	n/a
136.6086	0.5333	FIXCROSS	n/a	n/a	n/a	n/a	n/a	n/a	n/a	n/a
137.142	0.4833	INK	43	Incongruent	żółty	yellow	czerwony	red	hit	n/a
137.5963	n/a	RESPONSE	n/a	n/a	n/a	n/a	n/a	n/a	n/a	red
137.6253	1.0333	ITI	n/a	n/a	n/a	n/a	n/a	n/a	n/a	n/a
138.6586	0.5333	FIXCROSS	n/a	n/a	n/a	n/a	n/a	n/a	n/a	n/a
139.192	0.65	INK	44	Neutral	xxxxx	xxxxx	niebieski	blue	hit	n/a
139.8021	n/a	RESPONSE	n/a	n/a	n/a	n/a	n/a	n/a	n/a	blue
139.842	1.0334	ITI	n/a	n/a	n/a	n/a	n/a	n/a	n/a	n/a
140.8753	0.5333	FIXCROSS	n/a	n/a	n/a	n/a	n/a	n/a	n/a	n/a
141.4087	0.6667	INK	45	Neutral	xxxxxxx	xxxxxxx	czerwony	red	hit	n/a
142.0397	n/a	RESPONSE	n/a	n/a	n/a	n/a	n/a	n/a	n/a	red
142.0754	1.0333	ITI	n/a	n/a	n/a	n/a	n/a	n/a	n/a	n/a
143.1087	0.5333	FIXCROSS	n/a	n/a	n/a	n/a	n/a	n/a	n/a	n/a
143.642	0.75	INK	46	Incongruent	żółty	yellow	zielony	green	hit	n/a
144.3572	n/a	RESPONSE	n/a	n/a	n/a	n/a	n/a	n/a	n/a	green
144.392	1.0333	ITI	n/a	n/a	n/a	n/a	n/a	n/a	n/a	n/a
145.4254	0.5333	FIXCROSS	n/a	n/a	n/a	n/a	n/a	n/a	n/a	n/a
145.9587	0.6167	INK	47	Incongruent	czerwony	red	żółty	yellow	hit	n/a
146.5468	n/a	RESPONSE	n/a	n/a	n/a	n/a	n/a	n/a	n/a	yellow
146.5754	1.0333	ITI	n/a	n/a	n/a	n/a	n/a	n/a	n/a	n/a
147.6088	0.5333	FIXCROSS	n/a	n/a	n/a	n/a	n/a	n/a	n/a	n/a
148.1421	1.0833	INK	48	Incongruent	niebieski	blue	żółty	yellow	hit	n/a
149.184	n/a	RESPONSE	n/a	n/a	n/a	n/a	n/a	n/a	n/a	yellow
149.2254	1.0333	ITI	n/a	n/a	n/a	n/a	n/a	n/a	n/a	n/a
150.2588	0.5333	FIXCROSS	n/a	n/a	n/a	n/a	n/a	n/a	n/a	n/a
150.7921	0.5667	INK	49	Incongruent	żółty	yellow	niebieski	blue	hit	n/a
151.3257	n/a	RESPONSE	n/a	n/a	n/a	n/a	n/a	n/a	n/a	blue
151.3588	1.0333	ITI	n/a	n/a	n/a	n/a	n/a	n/a	n/a	n/a
152.3921	0.5333	FIXCROSS	n/a	n/a	n/a	n/a	n/a	n/a	n/a	n/a
152.9255	0.45	INK	50	Incongruent	czerwony	red	niebieski	blue	hit	n/a
153.3395	n/a	RESPONSE	n/a	n/a	n/a	n/a	n/a	n/a	n/a	blue
153.3755	1.0333	ITI	n/a	n/a	n/a	n/a	n/a	n/a	n/a	n/a
154.4088	0.5334	FIXCROSS	n/a	n/a	n/a	n/a	n/a	n/a	n/a	n/a
154.9422	0.6	INK	51	Neutral	xxxxxxxxx	xxxxxxxxx	czerwony	red	hit	n/a
155.5132	n/a	RESPONSE	n/a	n/a	n/a	n/a	n/a	n/a	n/a	red
155.5422	1.0333	ITI	n/a	n/a	n/a	n/a	n/a	n/a	n/a	n/a
156.5755	0.5333	FIXCROSS	n/a	n/a	n/a	n/a	n/a	n/a	n/a	n/a
157.1089	0.4667	INK	52	Neutral	xxxxxxxxx	xxxxxxxxx	czerwony	red	hit	n/a
157.5429	n/a	RESPONSE	n/a	n/a	n/a	n/a	n/a	n/a	n/a	red
157.5755	1.0333	ITI	n/a	n/a	n/a	n/a	n/a	n/a	n/a	n/a
158.6089	0.5333	FIXCROSS	n/a	n/a	n/a	n/a	n/a	n/a	n/a	n/a
159.1422	0.6167	INK	53	Neutral	xxxxxxxx	xxxxxxxx	żółty	yellow	hit	n/a
159.7167	n/a	RESPONSE	n/a	n/a	n/a	n/a	n/a	n/a	n/a	yellow
159.7589	1.0333	ITI	n/a	n/a	n/a	n/a	n/a	n/a	n/a	n/a
160.7922	0.5334	FIXCROSS	n/a	n/a	n/a	n/a	n/a	n/a	n/a	n/a
161.3256	0.6167	INK	54	Incongruent	zielony	green	niebieski	blue	hit	n/a
161.9063	n/a	RESPONSE	n/a	n/a	n/a	n/a	n/a	n/a	n/a	blue
161.9423	1.0333	ITI	n/a	n/a	n/a	n/a	n/a	n/a	n/a	n/a
162.9756	0.5333	FIXCROSS	n/a	n/a	n/a	n/a	n/a	n/a	n/a	n/a
163.5089	0.4833	INK	55	Neutral	xxxxxxxxx	xxxxxxxxx	zielony	green	hit	n/a
163.9521	n/a	RESPONSE	n/a	n/a	n/a	n/a	n/a	n/a	n/a	green
163.9923	1.0333	ITI	n/a	n/a	n/a	n/a	n/a	n/a	n/a	n/a
165.0256	0.5333	FIXCROSS	n/a	n/a	n/a	n/a	n/a	n/a	n/a	n/a
165.559	0.5	INK	56	Neutral	xxxxxxxx	xxxxxxxx	zielony	green	hit	n/a
166.0299	n/a	RESPONSE	n/a	n/a	n/a	n/a	n/a	n/a	n/a	green
166.059	1.0334	ITI	n/a	n/a	n/a	n/a	n/a	n/a	n/a	n/a
167.0923	0.5333	FIXCROSS	n/a	n/a	n/a	n/a	n/a	n/a	n/a	n/a
167.6257	0.4667	INK	57	Neutral	xxxxxxxxx	xxxxxxxxx	zielony	green	hit	n/a
168.0597	n/a	RESPONSE	n/a	n/a	n/a	n/a	n/a	n/a	n/a	green
168.0923	1.0333	ITI	n/a	n/a	n/a	n/a	n/a	n/a	n/a	n/a
169.1257	0.5333	FIXCROSS	n/a	n/a	n/a	n/a	n/a	n/a	n/a	n/a
169.659	0.5167	INK	58	Incongruent	czerwony	red	niebieski	blue	hit	n/a
170.1375	n/a	RESPONSE	n/a	n/a	n/a	n/a	n/a	n/a	n/a	blue
170.1757	1.0333	ITI	n/a	n/a	n/a	n/a	n/a	n/a	n/a	n/a
171.209	0.5333	FIXCROSS	n/a	n/a	n/a	n/a	n/a	n/a	n/a	n/a
171.7424	0.5667	INK	59	Incongruent	zielony	green	żółty	yellow	hit	n/a
172.2792	n/a	RESPONSE	n/a	n/a	n/a	n/a	n/a	n/a	n/a	yellow
172.3091	1.0333	ITI	n/a	n/a	n/a	n/a	n/a	n/a	n/a	n/a
173.3424	0.5333	FIXCROSS	n/a	n/a	n/a	n/a	n/a	n/a	n/a	n/a
173.8757	0.4333	INK	60	Neutral	xxxxxxxx	xxxxxxxx	niebieski	blue	hit	n/a
174.2771	n/a	RESPONSE	n/a	n/a	n/a	n/a	n/a	n/a	n/a	blue
174.3091	1.0334	ITI	n/a	n/a	n/a	n/a	n/a	n/a	n/a	n/a
175.3424	0.5333	FIXCROSS	n/a	n/a	n/a	n/a	n/a	n/a	n/a	n/a
175.8758	0.7333	INK	61	Neutral	xxxxx	xxxxx	zielony	green	hit	n/a
176.5785	n/a	RESPONSE	n/a	n/a	n/a	n/a	n/a	n/a	n/a	green
176.6091	1.0333	ITI	n/a	n/a	n/a	n/a	n/a	n/a	n/a	n/a
177.6424	0.5333	FIXCROSS	n/a	n/a	n/a	n/a	n/a	n/a	n/a	n/a
178.1758	0.4333	INK	62	Neutral	xxxxxxxx	xxxxxxxx	zielony	green	hit	n/a
178.5764	n/a	RESPONSE	n/a	n/a	n/a	n/a	n/a	n/a	n/a	green
178.6091	1.0333	ITI	n/a	n/a	n/a	n/a	n/a	n/a	n/a	n/a
179.6425	0.5333	FIXCROSS	n/a	n/a	n/a	n/a	n/a	n/a	n/a	n/a
180.1758	0.4333	INK	63	Neutral	xxxxxxxxx	xxxxxxxxx	żółty	yellow	hit	n/a
180.5742	n/a	RESPONSE	n/a	n/a	n/a	n/a	n/a	n/a	n/a	yellow
180.6091	1.0333	ITI	n/a	n/a	n/a	n/a	n/a	n/a	n/a	n/a
181.6425	0.5333	FIXCROSS	n/a	n/a	n/a	n/a	n/a	n/a	n/a	n/a
182.1758	0.9167	INK	64	Incongruent	zielony	green	żółty	yellow	incorrect	n/a
183.0516	n/a	RESPONSE	n/a	n/a	n/a	n/a	n/a	n/a	n/a	green
183.0925	1.0333	ITI	n/a	n/a	n/a	n/a	n/a	n/a	n/a	n/a
184.1259	0.5333	FIXCROSS	n/a	n/a	n/a	n/a	n/a	n/a	n/a	n/a
184.6592	0.85	INK	65	Neutral	xxxxx	xxxxx	niebieski	blue	hit	n/a
185.481	n/a	RESPONSE	n/a	n/a	n/a	n/a	n/a	n/a	n/a	blue
185.5092	1.0333	ITI	n/a	n/a	n/a	n/a	n/a	n/a	n/a	n/a
186.5426	0.5333	FIXCROSS	n/a	n/a	n/a	n/a	n/a	n/a	n/a	n/a
187.0759	0.65	INK	66	Neutral	xxxxxxxx	xxxxxxxx	żółty	yellow	hit	n/a
187.6865	n/a	RESPONSE	n/a	n/a	n/a	n/a	n/a	n/a	n/a	yellow
187.7259	1.0333	ITI	n/a	n/a	n/a	n/a	n/a	n/a	n/a	n/a
188.7592	0.5333	FIXCROSS	n/a	n/a	n/a	n/a	n/a	n/a	n/a	n/a
189.2926	0.5	INK	67	Incongruent	żółty	yellow	czerwony	red	hit	n/a
189.7644	n/a	RESPONSE	n/a	n/a	n/a	n/a	n/a	n/a	n/a	red
189.7926	1.0333	ITI	n/a	n/a	n/a	n/a	n/a	n/a	n/a	n/a
190.8259	0.5333	FIXCROSS	n/a	n/a	n/a	n/a	n/a	n/a	n/a	n/a
191.3593	0.9833	INK	68	Incongruent	niebieski	blue	zielony	green	hit	n/a
192.3057	n/a	RESPONSE	n/a	n/a	n/a	n/a	n/a	n/a	n/a	green
192.3426	1.0333	ITI	n/a	n/a	n/a	n/a	n/a	n/a	n/a	n/a
193.376	0.5333	FIXCROSS	n/a	n/a	n/a	n/a	n/a	n/a	n/a	n/a
193.9093	0.6334	INK	69	Incongruent	czerwony	red	zielony	green	hit	n/a
194.5113	n/a	RESPONSE	n/a	n/a	n/a	n/a	n/a	n/a	n/a	green
194.5427	1.0333	ITI	n/a	n/a	n/a	n/a	n/a	n/a	n/a	n/a
195.576	0.5333	FIXCROSS	n/a	n/a	n/a	n/a	n/a	n/a	n/a	n/a
196.1093	0.4667	INK	70	Neutral	xxxxx	xxxxx	zielony	green	hit	n/a
196.541	n/a	RESPONSE	n/a	n/a	n/a	n/a	n/a	n/a	n/a	green
196.576	1.0334	ITI	n/a	n/a	n/a	n/a	n/a	n/a	n/a	n/a
197.6094	0.5333	FIXCROSS	n/a	n/a	n/a	n/a	n/a	n/a	n/a	n/a
198.1427	0.4	INK	71	Neutral	xxxxxxxx	xxxxxxxx	żółty	yellow	hit	n/a
198.507	n/a	RESPONSE	n/a	n/a	n/a	n/a	n/a	n/a	n/a	yellow
198.5427	1.0334	ITI	n/a	n/a	n/a	n/a	n/a	n/a	n/a	n/a
199.576	0.5333	FIXCROSS	n/a	n/a	n/a	n/a	n/a	n/a	n/a	n/a
200.1094	0.3667	INK	72	Incongruent	zielony	green	niebieski	blue	hit	n/a
200.4408	n/a	RESPONSE	n/a	n/a	n/a	n/a	n/a	n/a	n/a	blue
200.476	1.0834	ITI	n/a	n/a	n/a	n/a	n/a	n/a	n/a	n/a
211.3573	n/a	RESPONSE	n/a	n/a	n/a	n/a	n/a	n/a	n/a	n/a
211.4262	1.0333	ITI	n/a	n/a	n/a	n/a	n/a	n/a	n/a	n/a
212.4595	0.5333	FIXCROSS	n/a	n/a	n/a	n/a	n/a	n/a	n/a	n/a
212.9929	0.7667	T_COLOR_NAME	1	Neutral	zielony	green	Neutral	Neutral	hit	n/a
213.7226	n/a	RESPONSE	n/a	n/a	n/a	n/a	n/a	n/a	n/a	green
213.7595	0.5333	FEEDBACK	n/a	n/a	n/a	n/a	n/a	n/a	n/a	n/a
214.2929	1.0334	ITI	n/a	n/a	n/a	n/a	n/a	n/a	n/a	n/a
215.3262	0.5333	FIXCROSS	n/a	n/a	n/a	n/a	n/a	n/a	n/a	n/a
215.8596	0.7	T_COLOR_NAME	2	Incongruent	zielony	green	żółty	yellow	hit	n/a
216.5196	n/a	RESPONSE	n/a	n/a	n/a	n/a	n/a	n/a	n/a	green
216.5596	0.5333	FEEDBACK	n/a	n/a	n/a	n/a	n/a	n/a	n/a	n/a
217.0929	1.0334	ITI	n/a	n/a	n/a	n/a	n/a	n/a	n/a	n/a
218.1263	0.5333	FIXCROSS	n/a	n/a	n/a	n/a	n/a	n/a	n/a	n/a
218.6596	0.65	T_COLOR_NAME	3	Neutral	zielony	green	Neutral	Neutral	hit	n/a
219.2687	n/a	RESPONSE	n/a	n/a	n/a	n/a	n/a	n/a	n/a	green
219.3096	0.5333	FEEDBACK	n/a	n/a	n/a	n/a	n/a	n/a	n/a	n/a
219.8429	1.0333	ITI	n/a	n/a	n/a	n/a	n/a	n/a	n/a	n/a
220.8763	0.5333	FIXCROSS	n/a	n/a	n/a	n/a	n/a	n/a	n/a	n/a
221.4096	0.7333	T_COLOR_NAME	4	Incongruent	niebieski	blue	zielony	green	hit	n/a
222.0976	n/a	RESPONSE	n/a	n/a	n/a	n/a	n/a	n/a	n/a	blue
222.143	0.5333	FEEDBACK	n/a	n/a	n/a	n/a	n/a	n/a	n/a	n/a
222.6763	1.0333	ITI	n/a	n/a	n/a	n/a	n/a	n/a	n/a	n/a
223.7097	0.5333	FIXCROSS	n/a	n/a	n/a	n/a	n/a	n/a	n/a	n/a
224.243	0.7	T_COLOR_NAME	5	Incongruent	czerwony	red	żółty	yellow	hit	n/a
224.9105	n/a	RESPONSE	n/a	n/a	n/a	n/a	n/a	n/a	n/a	red
224.943	0.5333	FEEDBACK	n/a	n/a	n/a	n/a	n/a	n/a	n/a	n/a
225.4763	1.0333	ITI	n/a	n/a	n/a	n/a	n/a	n/a	n/a	n/a
226.5097	0.5333	FIXCROSS	n/a	n/a	n/a	n/a	n/a	n/a	n/a	n/a
227.043	0.8167	T_COLOR_NAME	6	Neutral	żółty	yellow	Neutral	Neutral	hit	n/a
227.8194	n/a	RESPONSE	n/a	n/a	n/a	n/a	n/a	n/a	n/a	yellow
227.8597	0.5333	FEEDBACK	n/a	n/a	n/a	n/a	n/a	n/a	n/a	n/a
228.393	1.0333	ITI	n/a	n/a	n/a	n/a	n/a	n/a	n/a	n/a
229.4264	0.5333	FIXCROSS	n/a	n/a	n/a	n/a	n/a	n/a	n/a	n/a
229.9597	0.75	T_COLOR_NAME	7	Incongruent	żółty	yellow	niebieski	blue	hit	n/a
230.6804	n/a	RESPONSE	n/a	n/a	n/a	n/a	n/a	n/a	n/a	yellow
230.7097	0.5333	FEEDBACK	n/a	n/a	n/a	n/a	n/a	n/a	n/a	n/a
231.2431	1.0333	ITI	n/a	n/a	n/a	n/a	n/a	n/a	n/a	n/a
232.2764	0.5333	FIXCROSS	n/a	n/a	n/a	n/a	n/a	n/a	n/a	n/a
232.8098	0.5	T_COLOR_NAME	8	Neutral	żółty	yellow	Neutral	Neutral	hit	n/a
233.2696	n/a	RESPONSE	n/a	n/a	n/a	n/a	n/a	n/a	n/a	yellow
233.3098	0.5333	FEEDBACK	n/a	n/a	n/a	n/a	n/a	n/a	n/a	n/a
233.8431	1.0334	ITI	n/a	n/a	n/a	n/a	n/a	n/a	n/a	n/a
234.8765	0.5333	FIXCROSS	n/a	n/a	n/a	n/a	n/a	n/a	n/a	n/a
235.4098	0.7167	T_COLOR_NAME	9	Neutral	czerwony	red	Neutral	Neutral	hit	n/a
236.0826	n/a	RESPONSE	n/a	n/a	n/a	n/a	n/a	n/a	n/a	red
236.1265	0.5333	FEEDBACK	n/a	n/a	n/a	n/a	n/a	n/a	n/a	n/a
236.6598	1.0333	ITI	n/a	n/a	n/a	n/a	n/a	n/a	n/a	n/a
237.6932	0.5333	FIXCROSS	n/a	n/a	n/a	n/a	n/a	n/a	n/a	n/a
238.2265	0.8333	T_COLOR_NAME	10	Incongruent	niebieski	blue	czerwony	red	hit	n/a
239.0234	n/a	RESPONSE	n/a	n/a	n/a	n/a	n/a	n/a	n/a	blue
239.0598	0.5333	FEEDBACK	n/a	n/a	n/a	n/a	n/a	n/a	n/a	n/a
239.5932	1.0333	ITI	n/a	n/a	n/a	n/a	n/a	n/a	n/a	n/a
240.6265	0.5333	FIXCROSS	n/a	n/a	n/a	n/a	n/a	n/a	n/a	n/a
241.1599	0.6667	T_COLOR_NAME	11	Neutral	niebieski	blue	Neutral	Neutral	hit	n/a
241.7884	n/a	RESPONSE	n/a	n/a	n/a	n/a	n/a	n/a	n/a	blue
241.8265	0.5333	FEEDBACK	n/a	n/a	n/a	n/a	n/a	n/a	n/a	n/a
242.3599	1.0334	ITI	n/a	n/a	n/a	n/a	n/a	n/a	n/a	n/a
243.3932	0.5333	FIXCROSS	n/a	n/a	n/a	n/a	n/a	n/a	n/a	n/a
243.9266	0.4667	T_COLOR_NAME	12	Neutral	niebieski	blue	Neutral	Neutral	hit	n/a
244.3616	n/a	RESPONSE	n/a	n/a	n/a	n/a	n/a	n/a	n/a	blue
244.3932	0.5333	FEEDBACK	n/a	n/a	n/a	n/a	n/a	n/a	n/a	n/a
244.9266	1.05	ITI	n/a	n/a	n/a	n/a	n/a	n/a	n/a	n/a
247.2546	n/a	RESPONSE	n/a	n/a	n/a	n/a	n/a	n/a	n/a	n/a
247.3266	1.0333	ITI	n/a	n/a	n/a	n/a	n/a	n/a	n/a	n/a
248.3599	0.5333	FIXCROSS	n/a	n/a	n/a	n/a	n/a	n/a	n/a	n/a
248.8933	0.5667	COLOR_NAME	1	Incongruent	niebieski	blue	zielony	green	hit	n/a
249.4282	n/a	RESPONSE	n/a	n/a	n/a	n/a	n/a	n/a	n/a	blue
249.46	1.0334	ITI	n/a	n/a	n/a	n/a	n/a	n/a	n/a	n/a
250.4933	0.5333	FIXCROSS	n/a	n/a	n/a	n/a	n/a	n/a	n/a	n/a
251.0267	0.85	COLOR_NAME	2	Neutral	zielony	green	Neutral	Neutral	hit	n/a
251.8416	n/a	RESPONSE	n/a	n/a	n/a	n/a	n/a	n/a	n/a	green
251.8767	1.0333	ITI	n/a	n/a	n/a	n/a	n/a	n/a	n/a	n/a
252.91	0.5333	FIXCROSS	n/a	n/a	n/a	n/a	n/a	n/a	n/a	n/a
253.4433	0.6	COLOR_NAME	3	Neutral	zielony	green	Neutral	Neutral	hit	n/a
254.0153	n/a	RESPONSE	n/a	n/a	n/a	n/a	n/a	n/a	n/a	green
254.0433	1.0334	ITI	n/a	n/a	n/a	n/a	n/a	n/a	n/a	n/a
255.0767	0.5333	FIXCROSS	n/a	n/a	n/a	n/a	n/a	n/a	n/a	n/a
255.61	0.6333	COLOR_NAME	4	Incongruent	niebieski	blue	czerwony	red	hit	n/a
256.2049	n/a	RESPONSE	n/a	n/a	n/a	n/a	n/a	n/a	n/a	blue
256.2434	1.0334	ITI	n/a	n/a	n/a	n/a	n/a	n/a	n/a	n/a
257.2767	0.5333	FIXCROSS	n/a	n/a	n/a	n/a	n/a	n/a	n/a	n/a
257.8101	0.5333	COLOR_NAME	5	Neutral	niebieski	blue	Neutral	Neutral	hit	n/a
258.3147	n/a	RESPONSE	n/a	n/a	n/a	n/a	n/a	n/a	n/a	blue
258.3434	1.0334	ITI	n/a	n/a	n/a	n/a	n/a	n/a	n/a	n/a
259.3767	0.5333	FIXCROSS	n/a	n/a	n/a	n/a	n/a	n/a	n/a	n/a
259.9101	0.5833	COLOR_NAME	6	Incongruent	niebieski	blue	zielony	green	hit	n/a
260.4564	n/a	RESPONSE	n/a	n/a	n/a	n/a	n/a	n/a	n/a	blue
260.4934	1.0333	ITI	n/a	n/a	n/a	n/a	n/a	n/a	n/a	n/a
261.5268	0.5333	FIXCROSS	n/a	n/a	n/a	n/a	n/a	n/a	n/a	n/a
262.0601	0.6167	COLOR_NAME	7	Incongruent	zielony	green	żółty	yellow	hit	n/a
262.646	n/a	RESPONSE	n/a	n/a	n/a	n/a	n/a	n/a	n/a	green
262.6768	1.0333	ITI	n/a	n/a	n/a	n/a	n/a	n/a	n/a	n/a
263.7101	0.5333	FIXCROSS	n/a	n/a	n/a	n/a	n/a	n/a	n/a	n/a
264.2435	0.5	COLOR_NAME	8	Incongruent	zielony	green	czerwony	red	hit	n/a
264.7079	n/a	RESPONSE	n/a	n/a	n/a	n/a	n/a	n/a	n/a	green
264.7435	1.0334	ITI	n/a	n/a	n/a	n/a	n/a	n/a	n/a	n/a
265.7768	0.5333	FIXCROSS	n/a	n/a	n/a	n/a	n/a	n/a	n/a	n/a
266.3102	0.6	COLOR_NAME	9	Neutral	niebieski	blue	Neutral	Neutral	hit	n/a
266.8814	n/a	RESPONSE	n/a	n/a	n/a	n/a	n/a	n/a	n/a	blue
266.9102	1.0334	ITI	n/a	n/a	n/a	n/a	n/a	n/a	n/a	n/a
267.9435	0.5333	FIXCROSS	n/a	n/a	n/a	n/a	n/a	n/a	n/a	n/a
268.4769	0.4	COLOR_NAME	10	Neutral	niebieski	blue	Neutral	Neutral	hit	n/a
268.8473	n/a	RESPONSE	n/a	n/a	n/a	n/a	n/a	n/a	n/a	blue
268.8769	1.0333	ITI	n/a	n/a	n/a	n/a	n/a	n/a	n/a	n/a
269.9102	0.5333	FIXCROSS	n/a	n/a	n/a	n/a	n/a	n/a	n/a	n/a
270.4435	0.65	COLOR_NAME	11	Incongruent	żółty	yellow	zielony	green	hit	n/a
271.0529	n/a	RESPONSE	n/a	n/a	n/a	n/a	n/a	n/a	n/a	yellow
271.0936	1.0333	ITI	n/a	n/a	n/a	n/a	n/a	n/a	n/a	n/a
272.1269	0.5333	FIXCROSS	n/a	n/a	n/a	n/a	n/a	n/a	n/a	n/a
272.6602	0.9334	COLOR_NAME	12	Neutral	czerwony	red	Neutral	Neutral	hit	n/a
273.5622	n/a	RESPONSE	n/a	n/a	n/a	n/a	n/a	n/a	n/a	red
273.5936	1.0333	ITI	n/a	n/a	n/a	n/a	n/a	n/a	n/a	n/a
274.6269	0.5333	FIXCROSS	n/a	n/a	n/a	n/a	n/a	n/a	n/a	n/a
275.1603	0.5167	COLOR_NAME	13	Incongruent	czerwony	red	zielony	green	hit	n/a
275.64	n/a	RESPONSE	n/a	n/a	n/a	n/a	n/a	n/a	n/a	red
275.6769	1.0333	ITI	n/a	n/a	n/a	n/a	n/a	n/a	n/a	n/a
276.7103	0.5333	FIXCROSS	n/a	n/a	n/a	n/a	n/a	n/a	n/a	n/a
277.2436	0.6333	COLOR_NAME	14	Neutral	zielony	green	Neutral	Neutral	hit	n/a
277.8458	n/a	RESPONSE	n/a	n/a	n/a	n/a	n/a	n/a	n/a	green
277.877	1.0333	ITI	n/a	n/a	n/a	n/a	n/a	n/a	n/a	n/a
278.9103	0.5333	FIXCROSS	n/a	n/a	n/a	n/a	n/a	n/a	n/a	n/a
279.4436	0.4333	COLOR_NAME	15	Neutral	zielony	green	Neutral	Neutral	hit	n/a
279.8435	n/a	RESPONSE	n/a	n/a	n/a	n/a	n/a	n/a	n/a	green
279.877	1.0333	ITI	n/a	n/a	n/a	n/a	n/a	n/a	n/a	n/a
280.9103	0.5333	FIXCROSS	n/a	n/a	n/a	n/a	n/a	n/a	n/a	n/a
281.4437	0.7	COLOR_NAME	16	Incongruent	żółty	yellow	niebieski	blue	hit	n/a
282.1131	n/a	RESPONSE	n/a	n/a	n/a	n/a	n/a	n/a	n/a	yellow
282.1437	1.0333	ITI	n/a	n/a	n/a	n/a	n/a	n/a	n/a	n/a
283.177	0.5333	FIXCROSS	n/a	n/a	n/a	n/a	n/a	n/a	n/a	n/a
283.7104	0.5167	COLOR_NAME	17	Neutral	zielony	green	Neutral	Neutral	incorrect	n/a
284.1908	n/a	RESPONSE	n/a	n/a	n/a	n/a	n/a	n/a	n/a	yellow
284.227	1.0334	ITI	n/a	n/a	n/a	n/a	n/a	n/a	n/a	n/a
285.2604	0.5333	FIXCROSS	n/a	n/a	n/a	n/a	n/a	n/a	n/a	n/a
285.7937	0.75	COLOR_NAME	18	Incongruent	niebieski	blue	żółty	yellow	hit	n/a
286.5083	n/a	RESPONSE	n/a	n/a	n/a	n/a	n/a	n/a	n/a	blue
286.5437	1.0334	ITI	n/a	n/a	n/a	n/a	n/a	n/a	n/a	n/a
287.5771	0.5333	FIXCROSS	n/a	n/a	n/a	n/a	n/a	n/a	n/a	n/a
288.1104	0.7333	COLOR_NAME	19	Incongruent	zielony	green	czerwony	red	incorrect	n/a
288.8099	n/a	RESPONSE	n/a	n/a	n/a	n/a	n/a	n/a	n/a	red
288.8438	1.0334	ITI	n/a	n/a	n/a	n/a	n/a	n/a	n/a	n/a
289.8771	0.5333	FIXCROSS	n/a	n/a	n/a	n/a	n/a	n/a	n/a	n/a
290.4104	1.0167	COLOR_NAME	20	Neutral	niebieski	blue	Neutral	Neutral	hit	n/a
291.3992	n/a	RESPONSE	n/a	n/a	n/a	n/a	n/a	n/a	n/a	blue
291.4271	1.0333	ITI	n/a	n/a	n/a	n/a	n/a	n/a	n/a	n/a
292.4605	0.5333	FIXCROSS	n/a	n/a	n/a	n/a	n/a	n/a	n/a	n/a
292.9938	0.6	COLOR_NAME	21	Incongruent	niebieski	blue	żółty	yellow	hit	n/a
293.5568	n/a	RESPONSE	n/a	n/a	n/a	n/a	n/a	n/a	n/a	blue
293.5938	1.0333	ITI	n/a	n/a	n/a	n/a	n/a	n/a	n/a	n/a
294.6272	0.5333	FIXCROSS	n/a	n/a	n/a	n/a	n/a	n/a	n/a	n/a
295.1605	0.8667	COLOR_NAME	22	Incongruent	zielony	green	czerwony	red	hit	n/a
295.9861	n/a	RESPONSE	n/a	n/a	n/a	n/a	n/a	n/a	n/a	green
296.0272	1.0333	ITI	n/a	n/a	n/a	n/a	n/a	n/a	n/a	n/a
297.0605	0.5333	FIXCROSS	n/a	n/a	n/a	n/a	n/a	n/a	n/a	n/a
297.5939	0.5833	COLOR_NAME	23	Incongruent	żółty	yellow	zielony	green	hit	n/a
298.1439	n/a	RESPONSE	n/a	n/a	n/a	n/a	n/a	n/a	n/a	yellow
298.1772	1.0333	ITI	n/a	n/a	n/a	n/a	n/a	n/a	n/a	n/a
299.2105	0.5334	FIXCROSS	n/a	n/a	n/a	n/a	n/a	n/a	n/a	n/a
299.7439	0.65	COLOR_NAME	24	Neutral	żółty	yellow	Neutral	Neutral	hit	n/a
300.3656	n/a	RESPONSE	n/a	n/a	n/a	n/a	n/a	n/a	n/a	yellow
300.3939	1.0333	ITI	n/a	n/a	n/a	n/a	n/a	n/a	n/a	n/a
301.4272	0.5333	FIXCROSS	n/a	n/a	n/a	n/a	n/a	n/a	n/a	n/a
301.9606	0.65	COLOR_NAME	25	Incongruent	niebieski	blue	żółty	yellow	hit	n/a
302.5711	n/a	RESPONSE	n/a	n/a	n/a	n/a	n/a	n/a	n/a	blue
302.6106	1.0333	ITI	n/a	n/a	n/a	n/a	n/a	n/a	n/a	n/a
303.6439	0.5333	FIXCROSS	n/a	n/a	n/a	n/a	n/a	n/a	n/a	n/a
304.1773	0.55	COLOR_NAME	26	Incongruent	niebieski	blue	czerwony	red	hit	n/a
304.6968	n/a	RESPONSE	n/a	n/a	n/a	n/a	n/a	n/a	n/a	blue
304.7273	1.0333	ITI	n/a	n/a	n/a	n/a	n/a	n/a	n/a	n/a
305.7606	0.5333	FIXCROSS	n/a	n/a	n/a	n/a	n/a	n/a	n/a	n/a
306.294	0.75	COLOR_NAME	27	Neutral	żółty	yellow	Neutral	Neutral	hit	n/a
307.0144	n/a	RESPONSE	n/a	n/a	n/a	n/a	n/a	n/a	n/a	yellow
307.044	1.0334	ITI	n/a	n/a	n/a	n/a	n/a	n/a	n/a	n/a
308.0773	0.5333	FIXCROSS	n/a	n/a	n/a	n/a	n/a	n/a	n/a	n/a
308.6107	0.7333	COLOR_NAME	28	Neutral	niebieski	blue	Neutral	Neutral	hit	n/a
309.3159	n/a	RESPONSE	n/a	n/a	n/a	n/a	n/a	n/a	n/a	blue
309.344	1.0333	ITI	n/a	n/a	n/a	n/a	n/a	n/a	n/a	n/a
310.3773	0.5333	FIXCROSS	n/a	n/a	n/a	n/a	n/a	n/a	n/a	n/a
310.9107	0.6	COLOR_NAME	29	Incongruent	niebieski	blue	zielony	green	hit	n/a
311.4736	n/a	RESPONSE	n/a	n/a	n/a	n/a	n/a	n/a	n/a	blue
311.5107	1.0333	ITI	n/a	n/a	n/a	n/a	n/a	n/a	n/a	n/a
312.544	0.5334	FIXCROSS	n/a	n/a	n/a	n/a	n/a	n/a	n/a	n/a
313.0774	0.7167	COLOR_NAME	30	Neutral	czerwony	red	Neutral	Neutral	hit	n/a
313.7591	n/a	RESPONSE	n/a	n/a	n/a	n/a	n/a	n/a	n/a	red
313.794	1.0333	ITI	n/a	n/a	n/a	n/a	n/a	n/a	n/a	n/a
314.8274	0.5333	FIXCROSS	n/a	n/a	n/a	n/a	n/a	n/a	n/a	n/a
315.3607	0.7667	COLOR_NAME	31	Neutral	żółty	yellow	Neutral	Neutral	hit	n/a
316.0926	n/a	RESPONSE	n/a	n/a	n/a	n/a	n/a	n/a	n/a	yellow
316.1274	1.0333	ITI	n/a	n/a	n/a	n/a	n/a	n/a	n/a	n/a
317.1608	0.5333	FIXCROSS	n/a	n/a	n/a	n/a	n/a	n/a	n/a	n/a
317.6941	0.6667	COLOR_NAME	32	Incongruent	zielony	green	niebieski	blue	hit	n/a
318.3302	n/a	RESPONSE	n/a	n/a	n/a	n/a	n/a	n/a	n/a	green
318.3608	1.0333	ITI	n/a	n/a	n/a	n/a	n/a	n/a	n/a	n/a
319.3941	0.5333	FIXCROSS	n/a	n/a	n/a	n/a	n/a	n/a	n/a	n/a
319.9275	0.7333	COLOR_NAME	33	Incongruent	czerwony	red	zielony	green	hit	n/a
320.6158	n/a	RESPONSE	n/a	n/a	n/a	n/a	n/a	n/a	n/a	red
320.6608	1.0333	ITI	n/a	n/a	n/a	n/a	n/a	n/a	n/a	n/a
321.6941	0.5333	FIXCROSS	n/a	n/a	n/a	n/a	n/a	n/a	n/a	n/a
322.2275	0.55	COLOR_NAME	34	Neutral	czerwony	red	Neutral	Neutral	hit	n/a
322.7415	n/a	RESPONSE	n/a	n/a	n/a	n/a	n/a	n/a	n/a	red
322.7775	1.0333	ITI	n/a	n/a	n/a	n/a	n/a	n/a	n/a	n/a
323.8108	0.5333	FIXCROSS	n/a	n/a	n/a	n/a	n/a	n/a	n/a	n/a
324.3442	0.55	COLOR_NAME	35	Incongruent	czerwony	red	żółty	yellow	hit	n/a
324.8513	n/a	RESPONSE	n/a	n/a	n/a	n/a	n/a	n/a	n/a	red
324.8942	1.0333	ITI	n/a	n/a	n/a	n/a	n/a	n/a	n/a	n/a
325.9275	0.5333	FIXCROSS	n/a	n/a	n/a	n/a	n/a	n/a	n/a	n/a
326.4609	0.7333	COLOR_NAME	36	Incongruent	żółty	yellow	czerwony	red	hit	n/a
327.1528	n/a	RESPONSE	n/a	n/a	n/a	n/a	n/a	n/a	n/a	yellow
327.1942	1.0333	ITI	n/a	n/a	n/a	n/a	n/a	n/a	n/a	n/a
328.2276	0.5333	FIXCROSS	n/a	n/a	n/a	n/a	n/a	n/a	n/a	n/a
328.7609	0.55	COLOR_NAME	37	Incongruent	niebieski	blue	czerwony	red	hit	n/a
329.2785	n/a	RESPONSE	n/a	n/a	n/a	n/a	n/a	n/a	n/a	blue
329.3109	1.0333	ITI	n/a	n/a	n/a	n/a	n/a	n/a	n/a	n/a
330.3442	0.5333	FIXCROSS	n/a	n/a	n/a	n/a	n/a	n/a	n/a	n/a
330.8776	0.7667	COLOR_NAME	38	Neutral	czerwony	red	Neutral	Neutral	hit	n/a
331.612	n/a	RESPONSE	n/a	n/a	n/a	n/a	n/a	n/a	n/a	red
331.6443	1.0333	ITI	n/a	n/a	n/a	n/a	n/a	n/a	n/a	n/a
332.6776	0.5334	FIXCROSS	n/a	n/a	n/a	n/a	n/a	n/a	n/a	n/a
333.2109	0.5333	COLOR_NAME	39	Incongruent	czerwony	red	niebieski	blue	hit	n/a
333.7058	n/a	RESPONSE	n/a	n/a	n/a	n/a	n/a	n/a	n/a	red
333.7443	1.0334	ITI	n/a	n/a	n/a	n/a	n/a	n/a	n/a	n/a
334.7776	0.5333	FIXCROSS	n/a	n/a	n/a	n/a	n/a	n/a	n/a	n/a
335.311	0.45	COLOR_NAME	40	Incongruent	czerwony	red	niebieski	blue	hit	n/a
335.7197	n/a	RESPONSE	n/a	n/a	n/a	n/a	n/a	n/a	n/a	red
335.761	1.0333	ITI	n/a	n/a	n/a	n/a	n/a	n/a	n/a	n/a
336.7943	0.5333	FIXCROSS	n/a	n/a	n/a	n/a	n/a	n/a	n/a	n/a
337.3277	0.45	COLOR_NAME	41	Incongruent	czerwony	red	zielony	green	hit	n/a
337.7494	n/a	RESPONSE	n/a	n/a	n/a	n/a	n/a	n/a	n/a	red
337.7777	1.0333	ITI	n/a	n/a	n/a	n/a	n/a	n/a	n/a	n/a
338.811	0.5333	FIXCROSS	n/a	n/a	n/a	n/a	n/a	n/a	n/a	n/a
339.3443	0.7333	COLOR_NAME	42	Incongruent	zielony	green	żółty	yellow	hit	n/a
340.035	n/a	RESPONSE	n/a	n/a	n/a	n/a	n/a	n/a	n/a	green
340.0777	1.0333	ITI	n/a	n/a	n/a	n/a	n/a	n/a	n/a	n/a
341.111	0.5334	FIXCROSS	n/a	n/a	n/a	n/a	n/a	n/a	n/a	n/a
341.6444	0.5333	COLOR_NAME	43	Neutral	niebieski	blue	Neutral	Neutral	hit	n/a
342.1448	n/a	RESPONSE	n/a	n/a	n/a	n/a	n/a	n/a	n/a	blue
342.1777	1.0333	ITI	n/a	n/a	n/a	n/a	n/a	n/a	n/a	n/a
343.2111	0.5333	FIXCROSS	n/a	n/a	n/a	n/a	n/a	n/a	n/a	n/a
343.7444	0.7	COLOR_NAME	44	Neutral	żółty	yellow	Neutral	Neutral	hit	n/a
344.4144	n/a	RESPONSE	n/a	n/a	n/a	n/a	n/a	n/a	n/a	yellow
344.4444	1.0333	ITI	n/a	n/a	n/a	n/a	n/a	n/a	n/a	n/a
345.4777	0.5333	FIXCROSS	n/a	n/a	n/a	n/a	n/a	n/a	n/a	n/a
346.0111	0.5333	COLOR_NAME	45	Neutral	żółty	yellow	Neutral	Neutral	hit	n/a
346.5081	n/a	RESPONSE	n/a	n/a	n/a	n/a	n/a	n/a	n/a	yellow
346.5444	1.0334	ITI	n/a	n/a	n/a	n/a	n/a	n/a	n/a	n/a
347.5778	0.5333	FIXCROSS	n/a	n/a	n/a	n/a	n/a	n/a	n/a	n/a
348.1111	0.7667	COLOR_NAME	46	Incongruent	zielony	green	niebieski	blue	hit	n/a
348.8416	n/a	RESPONSE	n/a	n/a	n/a	n/a	n/a	n/a	n/a	green
348.8778	1.0333	ITI	n/a	n/a	n/a	n/a	n/a	n/a	n/a	n/a
349.9111	0.5333	FIXCROSS	n/a	n/a	n/a	n/a	n/a	n/a	n/a	n/a
350.4445	0.6	COLOR_NAME	47	Neutral	czerwony	red	Neutral	Neutral	hit	n/a
351.0152	n/a	RESPONSE	n/a	n/a	n/a	n/a	n/a	n/a	n/a	red
351.0445	1.0333	ITI	n/a	n/a	n/a	n/a	n/a	n/a	n/a	n/a
352.0778	0.5333	FIXCROSS	n/a	n/a	n/a	n/a	n/a	n/a	n/a	n/a
352.6112	0.6333	COLOR_NAME	48	Neutral	żółty	yellow	Neutral	Neutral	incorrect	n/a
353.2049	n/a	RESPONSE	n/a	n/a	n/a	n/a	n/a	n/a	n/a	green
353.2445	1.0333	ITI	n/a	n/a	n/a	n/a	n/a	n/a	n/a	n/a
354.2778	0.5333	FIXCROSS	n/a	n/a	n/a	n/a	n/a	n/a	n/a	n/a
354.8112	0.7333	COLOR_NAME	49	Incongruent	żółty	yellow	niebieski	blue	hit	n/a
355.5064	n/a	RESPONSE	n/a	n/a	n/a	n/a	n/a	n/a	n/a	yellow
355.5445	1.0333	ITI	n/a	n/a	n/a	n/a	n/a	n/a	n/a	n/a
356.5779	0.5333	FIXCROSS	n/a	n/a	n/a	n/a	n/a	n/a	n/a	n/a
357.1112	0.6	COLOR_NAME	50	Neutral	niebieski	blue	Neutral	Neutral	hit	n/a
357.6801	n/a	RESPONSE	n/a	n/a	n/a	n/a	n/a	n/a	n/a	blue
357.7112	1.0333	ITI	n/a	n/a	n/a	n/a	n/a	n/a	n/a	n/a
358.7446	0.5333	FIXCROSS	n/a	n/a	n/a	n/a	n/a	n/a	n/a	n/a
359.2779	0.6667	COLOR_NAME	51	Neutral	czerwony	red	Neutral	Neutral	hit	n/a
359.9018	n/a	RESPONSE	n/a	n/a	n/a	n/a	n/a	n/a	n/a	red
359.9446	1.0333	ITI	n/a	n/a	n/a	n/a	n/a	n/a	n/a	n/a
360.9779	0.5333	FIXCROSS	n/a	n/a	n/a	n/a	n/a	n/a	n/a	n/a
361.5113	0.8333	COLOR_NAME	52	Incongruent	czerwony	red	żółty	yellow	hit	n/a
362.2992	n/a	RESPONSE	n/a	n/a	n/a	n/a	n/a	n/a	n/a	red
362.3446	1.0333	ITI	n/a	n/a	n/a	n/a	n/a	n/a	n/a	n/a
363.378	0.5333	FIXCROSS	n/a	n/a	n/a	n/a	n/a	n/a	n/a	n/a
363.9113	0.45	COLOR_NAME	53	Neutral	czerwony	red	Neutral	Neutral	hit	n/a
364.3291	n/a	RESPONSE	n/a	n/a	n/a	n/a	n/a	n/a	n/a	red
364.3613	1.0334	ITI	n/a	n/a	n/a	n/a	n/a	n/a	n/a	n/a
365.3946	0.5333	FIXCROSS	n/a	n/a	n/a	n/a	n/a	n/a	n/a	n/a
365.928	0.45	COLOR_NAME	54	Incongruent	czerwony	red	żółty	yellow	hit	n/a
366.3428	n/a	RESPONSE	n/a	n/a	n/a	n/a	n/a	n/a	n/a	red
366.378	1.0333	ITI	n/a	n/a	n/a	n/a	n/a	n/a	n/a	n/a
367.4113	0.5333	FIXCROSS	n/a	n/a	n/a	n/a	n/a	n/a	n/a	n/a
367.9447	0.8333	COLOR_NAME	55	Incongruent	żółty	yellow	czerwony	red	hit	n/a
368.7403	n/a	RESPONSE	n/a	n/a	n/a	n/a	n/a	n/a	n/a	yellow
368.778	1.0333	ITI	n/a	n/a	n/a	n/a	n/a	n/a	n/a	n/a
369.8114	0.5333	FIXCROSS	n/a	n/a	n/a	n/a	n/a	n/a	n/a	n/a
370.3447	0.6167	COLOR_NAME	56	Incongruent	czerwony	red	niebieski	blue	hit	n/a
370.9299	n/a	RESPONSE	n/a	n/a	n/a	n/a	n/a	n/a	n/a	red
370.9614	1.0333	ITI	n/a	n/a	n/a	n/a	n/a	n/a	n/a	n/a
371.9947	0.5334	FIXCROSS	n/a	n/a	n/a	n/a	n/a	n/a	n/a	n/a
372.5281	0.55	COLOR_NAME	57	Neutral	czerwony	red	Neutral	Neutral	hit	n/a
373.0397	n/a	RESPONSE	n/a	n/a	n/a	n/a	n/a	n/a	n/a	red
373.0781	1.0334	ITI	n/a	n/a	n/a	n/a	n/a	n/a	n/a	n/a
374.1114	0.5333	FIXCROSS	n/a	n/a	n/a	n/a	n/a	n/a	n/a	n/a
374.6448	0.7167	COLOR_NAME	58	Incongruent	żółty	yellow	zielony	green	hit	n/a
375.3253	n/a	RESPONSE	n/a	n/a	n/a	n/a	n/a	n/a	n/a	yellow
375.3614	1.0333	ITI	n/a	n/a	n/a	n/a	n/a	n/a	n/a	n/a
376.3948	0.5333	FIXCROSS	n/a	n/a	n/a	n/a	n/a	n/a	n/a	n/a
376.9281	0.45	COLOR_NAME	59	Neutral	żółty	yellow	Neutral	Neutral	hit	n/a
377.339	n/a	RESPONSE	n/a	n/a	n/a	n/a	n/a	n/a	n/a	yellow
377.3781	1.0333	ITI	n/a	n/a	n/a	n/a	n/a	n/a	n/a	n/a
378.4115	0.5333	FIXCROSS	n/a	n/a	n/a	n/a	n/a	n/a	n/a	n/a
378.9448	0.45	COLOR_NAME	60	Neutral	czerwony	red	Neutral	Neutral	hit	n/a
379.353	n/a	RESPONSE	n/a	n/a	n/a	n/a	n/a	n/a	n/a	red
379.3948	1.0333	ITI	n/a	n/a	n/a	n/a	n/a	n/a	n/a	n/a
380.4282	0.5333	FIXCROSS	n/a	n/a	n/a	n/a	n/a	n/a	n/a	n/a
380.9615	0.55	COLOR_NAME	61	Neutral	niebieski	blue	Neutral	Neutral	hit	n/a
381.4786	n/a	RESPONSE	n/a	n/a	n/a	n/a	n/a	n/a	n/a	blue
381.5115	1.0334	ITI	n/a	n/a	n/a	n/a	n/a	n/a	n/a	n/a
382.5448	0.5333	FIXCROSS	n/a	n/a	n/a	n/a	n/a	n/a	n/a	n/a
383.0782	0.6167	COLOR_NAME	62	Neutral	żółty	yellow	Neutral	Neutral	hit	n/a
383.6523	n/a	RESPONSE	n/a	n/a	n/a	n/a	n/a	n/a	n/a	yellow
383.6949	1.0333	ITI	n/a	n/a	n/a	n/a	n/a	n/a	n/a	n/a
384.7282	0.5334	FIXCROSS	n/a	n/a	n/a	n/a	n/a	n/a	n/a	n/a
385.2615	0.7333	COLOR_NAME	63	Neutral	zielony	green	Neutral	Neutral	hit	n/a
385.9538	n/a	RESPONSE	n/a	n/a	n/a	n/a	n/a	n/a	n/a	green
385.9949	1.0334	ITI	n/a	n/a	n/a	n/a	n/a	n/a	n/a	n/a
387.0282	0.5333	FIXCROSS	n/a	n/a	n/a	n/a	n/a	n/a	n/a	n/a
387.5616	0.5667	COLOR_NAME	64	Neutral	zielony	green	Neutral	Neutral	hit	n/a
388.0955	n/a	RESPONSE	n/a	n/a	n/a	n/a	n/a	n/a	n/a	green
388.1282	1.0333	ITI	n/a	n/a	n/a	n/a	n/a	n/a	n/a	n/a
389.1616	0.5333	FIXCROSS	n/a	n/a	n/a	n/a	n/a	n/a	n/a	n/a
389.6949	0.5	COLOR_NAME	65	Neutral	niebieski	blue	Neutral	Neutral	hit	n/a
390.1573	n/a	RESPONSE	n/a	n/a	n/a	n/a	n/a	n/a	n/a	blue
390.1949	1.0333	ITI	n/a	n/a	n/a	n/a	n/a	n/a	n/a	n/a
391.2283	0.5333	FIXCROSS	n/a	n/a	n/a	n/a	n/a	n/a	n/a	n/a
391.7616	0.4334	COLOR_NAME	66	Neutral	zielony	green	Neutral	Neutral	incorrect	n/a
392.1551	n/a	RESPONSE	n/a	n/a	n/a	n/a	n/a	n/a	n/a	blue
392.195	1.0333	ITI	n/a	n/a	n/a	n/a	n/a	n/a	n/a	n/a
393.2283	0.5333	FIXCROSS	n/a	n/a	n/a	n/a	n/a	n/a	n/a	n/a
393.7616	0.6	COLOR_NAME	67	Incongruent	zielony	green	niebieski	blue	hit	n/a
394.3289	n/a	RESPONSE	n/a	n/a	n/a	n/a	n/a	n/a	n/a	green
394.3616	1.0333	ITI	n/a	n/a	n/a	n/a	n/a	n/a	n/a	n/a
395.395	0.5333	FIXCROSS	n/a	n/a	n/a	n/a	n/a	n/a	n/a	n/a
395.9283	0.7167	COLOR_NAME	68	Incongruent	żółty	yellow	czerwony	red	hit	n/a
396.6143	n/a	RESPONSE	n/a	n/a	n/a	n/a	n/a	n/a	n/a	yellow
396.645	1.0334	ITI	n/a	n/a	n/a	n/a	n/a	n/a	n/a	n/a
397.6784	0.5333	FIXCROSS	n/a	n/a	n/a	n/a	n/a	n/a	n/a	n/a
398.2117	0.5333	COLOR_NAME	69	Incongruent	żółty	yellow	niebieski	blue	hit	n/a
398.7081	n/a	RESPONSE	n/a	n/a	n/a	n/a	n/a	n/a	n/a	yellow
398.745	1.0333	ITI	n/a	n/a	n/a	n/a	n/a	n/a	n/a	n/a
399.7784	0.5334	FIXCROSS	n/a	n/a	n/a	n/a	n/a	n/a	n/a	n/a
400.3117	0.6833	COLOR_NAME	70	Neutral	zielony	green	Neutral	Neutral	hit	n/a
400.9617	n/a	RESPONSE	n/a	n/a	n/a	n/a	n/a	n/a	n/a	green
400.995	1.0333	ITI	n/a	n/a	n/a	n/a	n/a	n/a	n/a	n/a
402.0284	0.5333	FIXCROSS	n/a	n/a	n/a	n/a	n/a	n/a	n/a	n/a
402.5617	0.65	COLOR_NAME	71	Incongruent	zielony	green	żółty	yellow	hit	n/a
403.1833	n/a	RESPONSE	n/a	n/a	n/a	n/a	n/a	n/a	n/a	green
403.2117	1.0333	ITI	n/a	n/a	n/a	n/a	n/a	n/a	n/a	n/a
404.2451	0.5333	FIXCROSS	n/a	n/a	n/a	n/a	n/a	n/a	n/a	n/a
404.7784	0.5333	COLOR_NAME	72	Neutral	żółty	yellow	Neutral	Neutral	hit	n/a
405.277	n/a	RESPONSE	n/a	n/a	n/a	n/a	n/a	n/a	n/a	yellow
405.3118	1.05	ITI	n/a	n/a	n/a	n/a	n/a	n/a	n/a	n/a
410.4715	n/a	RESPONSE	n/a	n/a	n/a	n/a	n/a	n/a	n/a	n/a
