onset	duration	trial_type	braille_stimulus	targets	response_count
2.017	2.008	CUE_REST	n/a	n/a	n/a
7.016	1.008	FIXCROSS	n/a	n/a	n/a
13.066	1.008	FIXCROSS	n/a	n/a	n/a
21.124	2.009	CUE_6_DOT	n/a	n/a	n/a
26.125	1.008	FIXCROSS	n/a	n/a	n/a
27.142	5.008	6_DOT_DETECTION	POD##	2	n/a
29.736	n/a	RESPONSE	n/a	n/a	1/2
31.632	n/a	RESPONSE	n/a	n/a	2/2
32.175	1.008	FIXCROSS	n/a	n/a	n/a
33.192	5.008	6_DOT_DETECTION	SSTMT	0	n/a
38.225	1.008	FIXCROSS	n/a	n/a	n/a
39.242	5.008	6_DOT_DETECTION	##KOT	2	n/a
40.872	n/a	RESPONSE	n/a	n/a	1/2
41.952	n/a	RESPONSE	n/a	n/a	2/2
43.416	n/a	RESPONSE	n/a	n/a	3/2
44.275	1.008	FIXCROSS	n/a	n/a	n/a
45.291	5.009	6_DOT_DETECTION	OCPPC	0	n/a
50.325	1.008	FIXCROSS	n/a	n/a	n/a
51.341	5.009	6_DOT_DETECTION	AKT##	2	n/a
53.952	n/a	RESPONSE	n/a	n/a	1/2
54.992	n/a	RESPONSE	n/a	n/a	2/2
56.375	1.008	FIXCROSS	n/a	n/a	n/a
57.392	5.008	6_DOT_DETECTION	ODŁSE	0	n/a
62.425	1.008	FIXCROSS	n/a	n/a	n/a
63.441	5.009	6_DOT_DETECTION	#LMCI	1	n/a
64.912	n/a	RESPONSE	n/a	n/a	1/1
66.392	n/a	RESPONSE	n/a	n/a	2/1
68.475	1.008	FIXCROSS	n/a	n/a	n/a
69.492	5.008	6_DOT_DETECTION	##MYK	2	n/a
70.816	n/a	RESPONSE	n/a	n/a	1/2
71.936	n/a	RESPONSE	n/a	n/a	2/2
74.176	n/a	RESPONSE	n/a	n/a	3/2
76.033	2.008	CUE_REST	n/a	n/a	n/a
82.533	1.008	FIXCROSS	n/a	n/a	n/a
88.583	1.008	FIXCROSS	n/a	n/a	n/a
95.642	2.008	CUE_6_DOT	n/a	n/a	n/a
100.642	1.008	FIXCROSS	n/a	n/a	n/a
101.658	5.008	6_DOT_DETECTION	KUŁ##	2	n/a
103.912	n/a	RESPONSE	n/a	n/a	1/2
105.232	n/a	RESPONSE	n/a	n/a	2/2
106.056	n/a	RESPONSE	n/a	n/a	3/2
106.692	1.008	FIXCROSS	n/a	n/a	n/a
107.708	5.008	6_DOT_DETECTION	OALDO	0	n/a
111.952	n/a	RESPONSE	n/a	n/a	1/0
112.742	1.008	FIXCROSS	n/a	n/a	n/a
113.758	5.008	6_DOT_DETECTION	#TLI#	2	n/a
115.712	n/a	RESPONSE	n/a	n/a	1/2
117.376	n/a	RESPONSE	n/a	n/a	2/2
118.792	1.008	FIXCROSS	n/a	n/a	n/a
119.808	5.008	6_DOT_DETECTION	KAAE#	1	n/a
122.592	n/a	RESPONSE	n/a	n/a	1/1
124.842	1.008	FIXCROSS	n/a	n/a	n/a
125.858	5.008	6_DOT_DETECTION	#DLA#	2	n/a
127.872	n/a	RESPONSE	n/a	n/a	1/2
130.376	n/a	RESPONSE	n/a	n/a	2/2
130.892	1.008	FIXCROSS	n/a	n/a	n/a
131.908	5.008	6_DOT_DETECTION	KCCDB	0	n/a
136.942	1.008	FIXCROSS	n/a	n/a	n/a
137.958	5.008	6_DOT_DETECTION	##OKO	2	n/a
139.952	n/a	RESPONSE	n/a	n/a	1/2
140.976	n/a	RESPONSE	n/a	n/a	2/2
142.392	n/a	RESPONSE	n/a	n/a	3/2
142.992	1.008	FIXCROSS	n/a	n/a	n/a
144.008	5.008	6_DOT_DETECTION	TADMM	0	n/a
149.152	n/a	RESPONSE	n/a	n/a	1/0
150.55	2.008	CUE_REST	n/a	n/a	n/a
155.05	1.008	FIXCROSS	n/a	n/a	n/a
161.1	1.008	FIXCROSS	n/a	n/a	n/a
168.659	2.008	CUE_6_DOT	n/a	n/a	n/a
175.159	1.008	FIXCROSS	n/a	n/a	n/a
176.175	5.008	6_DOT_DETECTION	AII#P	1	n/a
178.656	n/a	RESPONSE	n/a	n/a	1/1
179.592	n/a	RESPONSE	n/a	n/a	2/1
181.209	1.008	FIXCROSS	n/a	n/a	n/a
182.225	5.009	6_DOT_DETECTION	#SAM#	2	n/a
184.552	n/a	RESPONSE	n/a	n/a	1/2
186.832	n/a	RESPONSE	n/a	n/a	2/2
187.259	1.008	FIXCROSS	n/a	n/a	n/a
188.275	5.009	6_DOT_DETECTION	SUB#D	1	n/a
191.112	n/a	RESPONSE	n/a	n/a	1/1
193.308	1.008	FIXCROSS	n/a	n/a	n/a
194.325	5.008	6_DOT_DETECTION	#KOK#	2	n/a
195.912	n/a	RESPONSE	n/a	n/a	1/2
197.832	n/a	RESPONSE	n/a	n/a	2/2
199.359	1.008	FIXCROSS	n/a	n/a	n/a
200.375	5.008	6_DOT_DETECTION	TMSŁE	0	n/a
205.409	1.008	FIXCROSS	n/a	n/a	n/a
206.425	5.008	6_DOT_DETECTION	OTO##	2	n/a
209.192	n/a	RESPONSE	n/a	n/a	1/2
210.072	n/a	RESPONSE	n/a	n/a	2/2
211.459	1.008	FIXCROSS	n/a	n/a	n/a
212.475	5.009	6_DOT_DETECTION	#LDDO	1	n/a
213.576	n/a	RESPONSE	n/a	n/a	1/1
217.509	1.008	FIXCROSS	n/a	n/a	n/a
218.525	5.008	6_DOT_DETECTION	##ODA	2	n/a
220.976	n/a	RESPONSE	n/a	n/a	1/2
221.696	n/a	RESPONSE	n/a	n/a	2/2
225.567	2.008	CUE_REST	n/a	n/a	n/a
229.567	1.008	FIXCROSS	n/a	n/a	n/a
235.617	1.008	FIXCROSS	n/a	n/a	n/a
243.675	2.008	CUE_6_DOT	n/a	n/a	n/a
249.675	1.008	FIXCROSS	n/a	n/a	n/a
250.692	5.008	6_DOT_DETECTION	#KIM#	2	n/a
251.856	n/a	RESPONSE	n/a	n/a	1/2
252.256	n/a	RESPONSE	n/a	n/a	2/2
253.712	n/a	RESPONSE	n/a	n/a	3/2
255.726	1.008	FIXCROSS	n/a	n/a	n/a
256.742	5.008	6_DOT_DETECTION	AK#OC	1	n/a
258.896	n/a	RESPONSE	n/a	n/a	1/1
261.776	1.008	FIXCROSS	n/a	n/a	n/a
262.792	5.009	6_DOT_DETECTION	CTP#C	1	n/a
265.056	n/a	RESPONSE	n/a	n/a	1/1
267.826	1.008	FIXCROSS	n/a	n/a	n/a
268.842	5.009	6_DOT_DETECTION	BAL##	2	n/a
271.232	n/a	RESPONSE	n/a	n/a	1/2
273.876	1.008	FIXCROSS	n/a	n/a	n/a
274.892	5.008	6_DOT_DETECTION	#KOC#	2	n/a
275.872	n/a	RESPONSE	n/a	n/a	1/2
279.926	1.008	FIXCROSS	n/a	n/a	n/a
280.942	5.008	6_DOT_DETECTION	BO#BS	1	n/a
285.496	n/a	RESPONSE	n/a	n/a	1/1
285.976	1.008	FIXCROSS	n/a	n/a	n/a
286.992	5.008	6_DOT_DETECTION	#OBA#	2	n/a
289.376	n/a	RESPONSE	n/a	n/a	1/2
291.872	n/a	RESPONSE	n/a	n/a	2/2
292.026	1.008	FIXCROSS	n/a	n/a	n/a
293.042	5.008	6_DOT_DETECTION	CDLD#	1	n/a
297.016	n/a	RESPONSE	n/a	n/a	1/1
299.084	2.008	CUE_REST	n/a	n/a	n/a
305.084	1.008	FIXCROSS	n/a	n/a	n/a
311.134	1.008	FIXCROSS	n/a	n/a	n/a
318.692	2.008	CUE_6_DOT	n/a	n/a	n/a
324.192	1.008	FIXCROSS	n/a	n/a	n/a
325.209	5.008	6_DOT_DETECTION	TE#DK	1	n/a
327.656	n/a	RESPONSE	n/a	n/a	1/1
330.242	1.008	FIXCROSS	n/a	n/a	n/a
331.258	5.009	6_DOT_DETECTION	##LAM	2	n/a
332.776	n/a	RESPONSE	n/a	n/a	1/2
333.736	n/a	RESPONSE	n/a	n/a	2/2
336.292	1.008	FIXCROSS	n/a	n/a	n/a
337.308	5.009	6_DOT_DETECTION	KUC##	2	n/a
339.632	n/a	RESPONSE	n/a	n/a	1/2
341.152	n/a	RESPONSE	n/a	n/a	2/2
342.342	1.008	FIXCROSS	n/a	n/a	n/a
343.359	5.008	6_DOT_DETECTION	ATDUL	0	n/a
348.392	1.008	FIXCROSS	n/a	n/a	n/a
349.409	5.008	6_DOT_DETECTION	##SYK	2	n/a
350.976	n/a	RESPONSE	n/a	n/a	1/2
351.896	n/a	RESPONSE	n/a	n/a	2/2
352.976	n/a	RESPONSE	n/a	n/a	3/2
354.442	1.008	FIXCROSS	n/a	n/a	n/a
355.459	5.008	6_DOT_DETECTION	LBDLS	0	n/a
360.492	1.008	FIXCROSS	n/a	n/a	n/a
361.508	5.009	6_DOT_DETECTION	LIC##	2	n/a
365.552	n/a	RESPONSE	n/a	n/a	1/2
366.216	n/a	RESPONSE	n/a	n/a	2/2
366.542	1.008	FIXCROSS	n/a	n/a	n/a
367.558	5.009	6_DOT_DETECTION	#BBTA	1	n/a
371.336	n/a	RESPONSE	n/a	n/a	1/1
373.601	2.008	CUE_REST	n/a	n/a	n/a
380.601	1.008	FIXCROSS	n/a	n/a	n/a
386.651	1.008	FIXCROSS	n/a	n/a	n/a
393.709	2.008	CUE_6_DOT	n/a	n/a	n/a
398.709	1.008	FIXCROSS	n/a	n/a	n/a
399.726	5.008	6_DOT_DETECTION	PAL##	2	n/a
402.456	n/a	RESPONSE	n/a	n/a	1/2
403.752	n/a	RESPONSE	n/a	n/a	2/2
404.759	1.008	FIXCROSS	n/a	n/a	n/a
405.775	5.009	6_DOT_DETECTION	ACCDB	0	n/a
409.232	n/a	RESPONSE	n/a	n/a	1/0
410.809	1.008	FIXCROSS	n/a	n/a	n/a
411.825	5.009	6_DOT_DETECTION	##PAŁ	2	n/a
413.632	n/a	RESPONSE	n/a	n/a	1/2
414.872	n/a	RESPONSE	n/a	n/a	2/2
415.776	n/a	RESPONSE	n/a	n/a	3/2
416.859	1.008	FIXCROSS	n/a	n/a	n/a
417.876	5.008	6_DOT_DETECTION	CB#CL	1	n/a
420.952	n/a	RESPONSE	n/a	n/a	1/1
422.909	1.008	FIXCROSS	n/a	n/a	n/a
423.925	5.009	6_DOT_DETECTION	##BOK	2	n/a
424.976	n/a	RESPONSE	n/a	n/a	1/2
425.752	n/a	RESPONSE	n/a	n/a	2/2
427.392	n/a	RESPONSE	n/a	n/a	3/2
428.959	1.008	FIXCROSS	n/a	n/a	n/a
429.976	5.008	6_DOT_DETECTION	UUACO	0	n/a
435.009	1.008	FIXCROSS	n/a	n/a	n/a
436.026	5.008	6_DOT_DETECTION	ADAOD	0	n/a
441.059	1.008	FIXCROSS	n/a	n/a	n/a
442.076	5.008	6_DOT_DETECTION	#MOP#	2	n/a
444.032	n/a	RESPONSE	n/a	n/a	1/2
446.312	n/a	RESPONSE	n/a	n/a	2/2
