onset	duration	trial_type	trial_number	stroop_condition	stim_text(PL)	stim_text(eng)	stim_color(PL)	stim_color(eng)	response_type	response_color
0.0	n/a	RESPONSE	n/a	n/a	n/a	n/a	n/a	n/a	n/a	n/a
0.0628	1.0333	ITI	n/a	n/a	n/a	n/a	n/a	n/a	n/a	n/a
1.0961	0.5167	FIXCROSS	n/a	n/a	n/a	n/a	n/a	n/a	n/a	n/a
1.6128	1.4833	T_INK	1	Neutral	xxxxxxxxx	xxxxxxxxx	czerwony	red	hit	n/a
3.0712	n/a	RESPONSE	n/a	n/a	n/a	n/a	n/a	n/a	n/a	red
3.0961	0.5167	FEEDBACK	n/a	n/a	n/a	n/a	n/a	n/a	n/a	n/a
3.6128	1.0167	ITI	n/a	n/a	n/a	n/a	n/a	n/a	n/a	n/a
4.6295	0.5167	FIXCROSS	n/a	n/a	n/a	n/a	n/a	n/a	n/a	n/a
5.1462	0.6333	T_INK	2	Neutral	xxxxx	xxxxx	zielony	green	incorrect	n/a
5.7586	n/a	RESPONSE	n/a	n/a	n/a	n/a	n/a	n/a	n/a	yellow
5.7795	0.5167	FEEDBACK	n/a	n/a	n/a	n/a	n/a	n/a	n/a	n/a
6.2962	1.0167	ITI	n/a	n/a	n/a	n/a	n/a	n/a	n/a	n/a
7.3129	0.5167	FIXCROSS	n/a	n/a	n/a	n/a	n/a	n/a	n/a	n/a
7.8295	1.8667	T_INK	3	Incongruent	żółty	yellow	czerwony	red	hit	n/a
9.6617	n/a	RESPONSE	n/a	n/a	n/a	n/a	n/a	n/a	n/a	red
9.6962	0.5167	FEEDBACK	n/a	n/a	n/a	n/a	n/a	n/a	n/a	n/a
10.2129	1.0167	ITI	n/a	n/a	n/a	n/a	n/a	n/a	n/a	n/a
11.2296	0.5167	FIXCROSS	n/a	n/a	n/a	n/a	n/a	n/a	n/a	n/a
11.7462	1.1667	T_INK	4	Incongruent	żółty	yellow	niebieski	blue	hit	n/a
12.8769	n/a	RESPONSE	n/a	n/a	n/a	n/a	n/a	n/a	n/a	blue
12.9129	0.5167	FEEDBACK	n/a	n/a	n/a	n/a	n/a	n/a	n/a	n/a
13.4296	1.0167	ITI	n/a	n/a	n/a	n/a	n/a	n/a	n/a	n/a
14.4463	0.5167	FIXCROSS	n/a	n/a	n/a	n/a	n/a	n/a	n/a	n/a
14.963	1.05	T_INK	5	Neutral	xxxxxxxxx	xxxxxxxxx	zielony	green	hit	n/a
15.9801	n/a	RESPONSE	n/a	n/a	n/a	n/a	n/a	n/a	n/a	green
16.013	0.5167	FEEDBACK	n/a	n/a	n/a	n/a	n/a	n/a	n/a	n/a
16.5296	1.0167	ITI	n/a	n/a	n/a	n/a	n/a	n/a	n/a	n/a
17.5463	0.5167	FIXCROSS	n/a	n/a	n/a	n/a	n/a	n/a	n/a	n/a
18.063	1.7334	T_INK	6	Incongruent	żółty	yellow	zielony	green	hit	n/a
19.7712	n/a	RESPONSE	n/a	n/a	n/a	n/a	n/a	n/a	n/a	green
19.7963	0.5167	FEEDBACK	n/a	n/a	n/a	n/a	n/a	n/a	n/a	n/a
20.313	1.0167	ITI	n/a	n/a	n/a	n/a	n/a	n/a	n/a	n/a
21.3297	0.5167	FIXCROSS	n/a	n/a	n/a	n/a	n/a	n/a	n/a	n/a
21.8464	0.8667	T_INK	7	Neutral	xxxxxxxx	xxxxxxxx	żółty	yellow	hit	n/a
22.6825	n/a	RESPONSE	n/a	n/a	n/a	n/a	n/a	n/a	n/a	yellow
22.7131	0.5167	FEEDBACK	n/a	n/a	n/a	n/a	n/a	n/a	n/a	n/a
23.2297	1.0167	ITI	n/a	n/a	n/a	n/a	n/a	n/a	n/a	n/a
24.2464	0.5167	FIXCROSS	n/a	n/a	n/a	n/a	n/a	n/a	n/a	n/a
24.7631	1.8167	T_INK	8	Incongruent	zielony	green	niebieski	blue	hit	n/a
26.5536	n/a	RESPONSE	n/a	n/a	n/a	n/a	n/a	n/a	n/a	blue
26.5798	0.5167	FEEDBACK	n/a	n/a	n/a	n/a	n/a	n/a	n/a	n/a
27.0964	1.0167	ITI	n/a	n/a	n/a	n/a	n/a	n/a	n/a	n/a
28.1131	0.5167	FIXCROSS	n/a	n/a	n/a	n/a	n/a	n/a	n/a	n/a
28.6298	1.9	T_INK	9	Incongruent	czerwony	red	zielony	green	hit	n/a
30.5046	n/a	RESPONSE	n/a	n/a	n/a	n/a	n/a	n/a	n/a	green
30.5298	0.5167	FEEDBACK	n/a	n/a	n/a	n/a	n/a	n/a	n/a	n/a
31.0465	1.0167	ITI	n/a	n/a	n/a	n/a	n/a	n/a	n/a	n/a
32.0632	0.5167	FIXCROSS	n/a	n/a	n/a	n/a	n/a	n/a	n/a	n/a
32.5798	1.7667	T_INK	10	Incongruent	czerwony	red	żółty	yellow	hit	n/a
34.3277	n/a	RESPONSE	n/a	n/a	n/a	n/a	n/a	n/a	n/a	yellow
34.3465	0.5167	FEEDBACK	n/a	n/a	n/a	n/a	n/a	n/a	n/a	n/a
34.8632	1.0167	ITI	n/a	n/a	n/a	n/a	n/a	n/a	n/a	n/a
35.8799	0.5167	FIXCROSS	n/a	n/a	n/a	n/a	n/a	n/a	n/a	n/a
36.3965	1.5334	T_INK	11	Incongruent	niebieski	blue	czerwony	red	hit	n/a
37.8948	n/a	RESPONSE	n/a	n/a	n/a	n/a	n/a	n/a	n/a	red
37.9299	0.5167	FEEDBACK	n/a	n/a	n/a	n/a	n/a	n/a	n/a	n/a
38.4466	1.0167	ITI	n/a	n/a	n/a	n/a	n/a	n/a	n/a	n/a
39.4632	0.5167	FIXCROSS	n/a	n/a	n/a	n/a	n/a	n/a	n/a	n/a
39.9799	0.6333	T_INK	12	Neutral	xxxxx	xxxxx	czerwony	red	hit	n/a
40.5822	n/a	RESPONSE	n/a	n/a	n/a	n/a	n/a	n/a	n/a	red
40.6133	0.5167	FEEDBACK	n/a	n/a	n/a	n/a	n/a	n/a	n/a	n/a
41.1299	1.0333	ITI	n/a	n/a	n/a	n/a	n/a	n/a	n/a	n/a
43.9734	n/a	RESPONSE	n/a	n/a	n/a	n/a	n/a	n/a	n/a	n/a
44.03	1.0167	ITI	n/a	n/a	n/a	n/a	n/a	n/a	n/a	n/a
45.0466	0.5167	FIXCROSS	n/a	n/a	n/a	n/a	n/a	n/a	n/a	n/a
45.5633	1.05	INK	1	Neutral	xxxxxxx	xxxxxxx	żółty	yellow	hit	n/a
46.5807	n/a	RESPONSE	n/a	n/a	n/a	n/a	n/a	n/a	n/a	yellow
46.6133	1.0167	ITI	n/a	n/a	n/a	n/a	n/a	n/a	n/a	n/a
47.63	0.5167	FIXCROSS	n/a	n/a	n/a	n/a	n/a	n/a	n/a	n/a
48.1467	0.4833	INK	2	Incongruent	zielony	green	czerwony	red	hit	n/a
48.6122	n/a	RESPONSE	n/a	n/a	n/a	n/a	n/a	n/a	n/a	red
48.63	1.0167	ITI	n/a	n/a	n/a	n/a	n/a	n/a	n/a	n/a
49.6467	0.5167	FIXCROSS	n/a	n/a	n/a	n/a	n/a	n/a	n/a	n/a
50.1634	0.5333	INK	3	Neutral	xxxxxxxxx	xxxxxxxxx	czerwony	red	hit	n/a
50.6757	n/a	RESPONSE	n/a	n/a	n/a	n/a	n/a	n/a	n/a	red
50.6967	1.0167	ITI	n/a	n/a	n/a	n/a	n/a	n/a	n/a	n/a
51.7134	0.5167	FIXCROSS	n/a	n/a	n/a	n/a	n/a	n/a	n/a	n/a
52.2301	0.6667	INK	4	Neutral	xxxxxxx	xxxxxxx	żółty	yellow	hit	n/a
52.8672	n/a	RESPONSE	n/a	n/a	n/a	n/a	n/a	n/a	n/a	yellow
52.8967	1.0167	ITI	n/a	n/a	n/a	n/a	n/a	n/a	n/a	n/a
53.9134	0.5167	FIXCROSS	n/a	n/a	n/a	n/a	n/a	n/a	n/a	n/a
54.4301	0.6333	INK	5	Incongruent	niebieski	blue	czerwony	red	hit	n/a
55.0426	n/a	RESPONSE	n/a	n/a	n/a	n/a	n/a	n/a	n/a	red
55.0634	1.0167	ITI	n/a	n/a	n/a	n/a	n/a	n/a	n/a	n/a
56.0801	0.5167	FIXCROSS	n/a	n/a	n/a	n/a	n/a	n/a	n/a	n/a
56.5968	0.55	INK	6	Incongruent	żółty	yellow	czerwony	red	hit	n/a
57.1222	n/a	RESPONSE	n/a	n/a	n/a	n/a	n/a	n/a	n/a	red
57.1468	1.0167	ITI	n/a	n/a	n/a	n/a	n/a	n/a	n/a	n/a
58.1635	0.5167	FIXCROSS	n/a	n/a	n/a	n/a	n/a	n/a	n/a	n/a
58.6801	1.1	INK	7	Incongruent	zielony	green	niebieski	blue	hit	n/a
59.7615	n/a	RESPONSE	n/a	n/a	n/a	n/a	n/a	n/a	n/a	blue
59.7802	1.0167	ITI	n/a	n/a	n/a	n/a	n/a	n/a	n/a	n/a
60.7968	0.5167	FIXCROSS	n/a	n/a	n/a	n/a	n/a	n/a	n/a	n/a
61.3135	0.7667	INK	8	Neutral	xxxxxxx	xxxxxxx	niebieski	blue	hit	n/a
62.049	n/a	RESPONSE	n/a	n/a	n/a	n/a	n/a	n/a	n/a	blue
62.0802	1.0167	ITI	n/a	n/a	n/a	n/a	n/a	n/a	n/a	n/a
63.0969	0.5167	FIXCROSS	n/a	n/a	n/a	n/a	n/a	n/a	n/a	n/a
63.6135	0.75	INK	9	Neutral	xxxxxxxx	xxxxxxxx	żółty	yellow	hit	n/a
64.3364	n/a	RESPONSE	n/a	n/a	n/a	n/a	n/a	n/a	n/a	yellow
64.3635	1.0167	ITI	n/a	n/a	n/a	n/a	n/a	n/a	n/a	n/a
65.3802	0.5167	FIXCROSS	n/a	n/a	n/a	n/a	n/a	n/a	n/a	n/a
65.8969	0.7833	INK	10	Neutral	xxxxxxxxx	xxxxxxxxx	zielony	green	hit	n/a
66.6559	n/a	RESPONSE	n/a	n/a	n/a	n/a	n/a	n/a	n/a	green
66.6803	1.0167	ITI	n/a	n/a	n/a	n/a	n/a	n/a	n/a	n/a
67.6969	0.5167	FIXCROSS	n/a	n/a	n/a	n/a	n/a	n/a	n/a	n/a
68.2136	0.7	INK	11	Neutral	xxxxx	xxxxx	czerwony	red	hit	n/a
68.8954	n/a	RESPONSE	n/a	n/a	n/a	n/a	n/a	n/a	n/a	red
68.9136	1.0167	ITI	n/a	n/a	n/a	n/a	n/a	n/a	n/a	n/a
69.9303	0.5167	FIXCROSS	n/a	n/a	n/a	n/a	n/a	n/a	n/a	n/a
70.447	0.9	INK	12	Neutral	xxxxx	xxxxx	zielony	green	hit	n/a
71.3267	n/a	RESPONSE	n/a	n/a	n/a	n/a	n/a	n/a	n/a	green
71.347	1.0167	ITI	n/a	n/a	n/a	n/a	n/a	n/a	n/a	n/a
72.3636	0.5167	FIXCROSS	n/a	n/a	n/a	n/a	n/a	n/a	n/a	n/a
72.8803	0.9333	INK	13	Incongruent	niebieski	blue	czerwony	red	hit	n/a
73.7901	n/a	RESPONSE	n/a	n/a	n/a	n/a	n/a	n/a	n/a	red
73.8137	1.0167	ITI	n/a	n/a	n/a	n/a	n/a	n/a	n/a	n/a
74.8303	0.5167	FIXCROSS	n/a	n/a	n/a	n/a	n/a	n/a	n/a	n/a
75.347	1.0167	INK	14	Incongruent	czerwony	red	niebieski	blue	hit	n/a
76.3335	n/a	RESPONSE	n/a	n/a	n/a	n/a	n/a	n/a	n/a	blue
76.3637	1.0167	ITI	n/a	n/a	n/a	n/a	n/a	n/a	n/a	n/a
77.3804	0.5167	FIXCROSS	n/a	n/a	n/a	n/a	n/a	n/a	n/a	n/a
77.897	0.9833	INK	15	Incongruent	niebieski	blue	zielony	green	hit	n/a
78.8609	n/a	RESPONSE	n/a	n/a	n/a	n/a	n/a	n/a	n/a	green
78.8804	1.0167	ITI	n/a	n/a	n/a	n/a	n/a	n/a	n/a	n/a
79.8971	0.5167	FIXCROSS	n/a	n/a	n/a	n/a	n/a	n/a	n/a	n/a
80.4137	0.6	INK	16	Neutral	xxxxxxxxx	xxxxxxxxx	żółty	yellow	hit	n/a
80.9884	n/a	RESPONSE	n/a	n/a	n/a	n/a	n/a	n/a	n/a	yellow
81.0138	1.0167	ITI	n/a	n/a	n/a	n/a	n/a	n/a	n/a	n/a
82.0304	0.5167	FIXCROSS	n/a	n/a	n/a	n/a	n/a	n/a	n/a	n/a
82.5471	1.5334	INK	17	Incongruent	czerwony	red	niebieski	blue	hit	n/a
84.0597	n/a	RESPONSE	n/a	n/a	n/a	n/a	n/a	n/a	n/a	blue
84.0805	1.0167	ITI	n/a	n/a	n/a	n/a	n/a	n/a	n/a	n/a
85.0971	0.5167	FIXCROSS	n/a	n/a	n/a	n/a	n/a	n/a	n/a	n/a
85.6138	0.5833	INK	18	Neutral	xxxxx	xxxxx	niebieski	blue	hit	n/a
86.1712	n/a	RESPONSE	n/a	n/a	n/a	n/a	n/a	n/a	n/a	blue
86.1971	1.0167	ITI	n/a	n/a	n/a	n/a	n/a	n/a	n/a	n/a
87.2138	0.5167	FIXCROSS	n/a	n/a	n/a	n/a	n/a	n/a	n/a	n/a
87.7305	0.4667	INK	19	Neutral	xxxxxxx	xxxxxxx	niebieski	blue	hit	n/a
88.1707	n/a	RESPONSE	n/a	n/a	n/a	n/a	n/a	n/a	n/a	blue
88.1972	1.0167	ITI	n/a	n/a	n/a	n/a	n/a	n/a	n/a	n/a
89.2138	0.5167	FIXCROSS	n/a	n/a	n/a	n/a	n/a	n/a	n/a	n/a
89.7305	1.4167	INK	20	Incongruent	żółty	yellow	zielony	green	hit	n/a
91.1139	n/a	RESPONSE	n/a	n/a	n/a	n/a	n/a	n/a	n/a	green
91.1472	1.0167	ITI	n/a	n/a	n/a	n/a	n/a	n/a	n/a	n/a
92.1639	0.5167	FIXCROSS	n/a	n/a	n/a	n/a	n/a	n/a	n/a	n/a
92.6806	0.65	INK	21	Neutral	xxxxxxx	xxxxxxx	czerwony	red	hit	n/a
93.3054	n/a	RESPONSE	n/a	n/a	n/a	n/a	n/a	n/a	n/a	red
93.3306	1.0167	ITI	n/a	n/a	n/a	n/a	n/a	n/a	n/a	n/a
94.3472	0.5167	FIXCROSS	n/a	n/a	n/a	n/a	n/a	n/a	n/a	n/a
94.8639	0.8	INK	22	Incongruent	żółty	yellow	niebieski	blue	hit	n/a
95.6408	n/a	RESPONSE	n/a	n/a	n/a	n/a	n/a	n/a	n/a	blue
95.6639	1.0167	ITI	n/a	n/a	n/a	n/a	n/a	n/a	n/a	n/a
96.6806	0.5167	FIXCROSS	n/a	n/a	n/a	n/a	n/a	n/a	n/a	n/a
97.1973	0.5833	INK	23	Neutral	xxxxxxxx	xxxxxxxx	żółty	yellow	hit	n/a
97.7522	n/a	RESPONSE	n/a	n/a	n/a	n/a	n/a	n/a	n/a	yellow
97.7806	1.0167	ITI	n/a	n/a	n/a	n/a	n/a	n/a	n/a	n/a
98.7973	0.5167	FIXCROSS	n/a	n/a	n/a	n/a	n/a	n/a	n/a	n/a
99.314	0.85	INK	24	Incongruent	niebieski	blue	żółty	yellow	hit	n/a
100.1358	n/a	RESPONSE	n/a	n/a	n/a	n/a	n/a	n/a	n/a	yellow
100.164	1.0167	ITI	n/a	n/a	n/a	n/a	n/a	n/a	n/a	n/a
101.1807	0.5167	FIXCROSS	n/a	n/a	n/a	n/a	n/a	n/a	n/a	n/a
101.6973	0.7833	INK	25	Incongruent	niebieski	blue	zielony	green	hit	n/a
102.4552	n/a	RESPONSE	n/a	n/a	n/a	n/a	n/a	n/a	n/a	green
102.4807	1.0167	ITI	n/a	n/a	n/a	n/a	n/a	n/a	n/a	n/a
103.4974	0.5167	FIXCROSS	n/a	n/a	n/a	n/a	n/a	n/a	n/a	n/a
104.014	0.5167	INK	26	Incongruent	czerwony	red	żółty	yellow	hit	n/a
104.5027	n/a	RESPONSE	n/a	n/a	n/a	n/a	n/a	n/a	n/a	yellow
104.5307	1.0167	ITI	n/a	n/a	n/a	n/a	n/a	n/a	n/a	n/a
105.5474	0.5167	FIXCROSS	n/a	n/a	n/a	n/a	n/a	n/a	n/a	n/a
106.0641	1.1	INK	27	Incongruent	żółty	yellow	zielony	green	hit	n/a
107.1421	n/a	RESPONSE	n/a	n/a	n/a	n/a	n/a	n/a	n/a	green
107.1641	1.0167	ITI	n/a	n/a	n/a	n/a	n/a	n/a	n/a	n/a
108.1807	0.5167	FIXCROSS	n/a	n/a	n/a	n/a	n/a	n/a	n/a	n/a
108.6974	0.65	INK	28	Incongruent	zielony	green	żółty	yellow	hit	n/a
109.3176	n/a	RESPONSE	n/a	n/a	n/a	n/a	n/a	n/a	n/a	yellow
109.3474	1.0167	ITI	n/a	n/a	n/a	n/a	n/a	n/a	n/a	n/a
110.3641	0.5167	FIXCROSS	n/a	n/a	n/a	n/a	n/a	n/a	n/a	n/a
110.8808	0.8	INK	29	Incongruent	niebieski	blue	czerwony	red	hit	n/a
111.6529	n/a	RESPONSE	n/a	n/a	n/a	n/a	n/a	n/a	n/a	red
111.6808	1.0167	ITI	n/a	n/a	n/a	n/a	n/a	n/a	n/a	n/a
112.6975	0.5167	FIXCROSS	n/a	n/a	n/a	n/a	n/a	n/a	n/a	n/a
113.2141	0.5	INK	30	Neutral	xxxxxxx	xxxxxxx	żółty	yellow	hit	n/a
113.6845	n/a	RESPONSE	n/a	n/a	n/a	n/a	n/a	n/a	n/a	yellow
113.7141	1.0167	ITI	n/a	n/a	n/a	n/a	n/a	n/a	n/a	n/a
114.7308	0.5167	FIXCROSS	n/a	n/a	n/a	n/a	n/a	n/a	n/a	n/a
115.2475	0.85	INK	31	Neutral	xxxxx	xxxxx	zielony	green	hit	n/a
116.0679	n/a	RESPONSE	n/a	n/a	n/a	n/a	n/a	n/a	n/a	green
116.0975	1.0167	ITI	n/a	n/a	n/a	n/a	n/a	n/a	n/a	n/a
117.1142	0.5167	FIXCROSS	n/a	n/a	n/a	n/a	n/a	n/a	n/a	n/a
117.6309	2.1334	INK	32	Incongruent	czerwony	red	zielony	green	hit	n/a
119.731	n/a	RESPONSE	n/a	n/a	n/a	n/a	n/a	n/a	n/a	green
119.7642	1.0167	ITI	n/a	n/a	n/a	n/a	n/a	n/a	n/a	n/a
120.7809	0.5167	FIXCROSS	n/a	n/a	n/a	n/a	n/a	n/a	n/a	n/a
121.2976	0.8	INK	33	Neutral	xxxxx	xxxxx	czerwony	red	hit	n/a
122.0665	n/a	RESPONSE	n/a	n/a	n/a	n/a	n/a	n/a	n/a	red
122.0976	1.0167	ITI	n/a	n/a	n/a	n/a	n/a	n/a	n/a	n/a
123.1142	0.5167	FIXCROSS	n/a	n/a	n/a	n/a	n/a	n/a	n/a	n/a
123.6309	0.9	INK	34	Neutral	xxxxxxxxx	xxxxxxxxx	żółty	yellow	hit	n/a
124.4979	n/a	RESPONSE	n/a	n/a	n/a	n/a	n/a	n/a	n/a	yellow
124.5309	1.0167	ITI	n/a	n/a	n/a	n/a	n/a	n/a	n/a	n/a
125.5476	0.5167	FIXCROSS	n/a	n/a	n/a	n/a	n/a	n/a	n/a	n/a
126.0643	0.85	INK	35	Incongruent	żółty	yellow	zielony	green	hit	n/a
126.8813	n/a	RESPONSE	n/a	n/a	n/a	n/a	n/a	n/a	n/a	green
126.9143	1.0167	ITI	n/a	n/a	n/a	n/a	n/a	n/a	n/a	n/a
127.931	0.5167	FIXCROSS	n/a	n/a	n/a	n/a	n/a	n/a	n/a	n/a
128.4477	0.6667	INK	36	Neutral	xxxxxxxx	xxxxxxxx	zielony	green	hit	n/a
129.0888	n/a	RESPONSE	n/a	n/a	n/a	n/a	n/a	n/a	n/a	green
129.1143	1.0167	ITI	n/a	n/a	n/a	n/a	n/a	n/a	n/a	n/a
130.131	0.5167	FIXCROSS	n/a	n/a	n/a	n/a	n/a	n/a	n/a	n/a
130.6477	0.8667	INK	37	Incongruent	zielony	green	niebieski	blue	hit	n/a
131.4882	n/a	RESPONSE	n/a	n/a	n/a	n/a	n/a	n/a	n/a	blue
131.5144	1.0167	ITI	n/a	n/a	n/a	n/a	n/a	n/a	n/a	n/a
132.531	0.5167	FIXCROSS	n/a	n/a	n/a	n/a	n/a	n/a	n/a	n/a
133.0477	0.5333	INK	38	Incongruent	żółty	yellow	niebieski	blue	hit	n/a
133.5517	n/a	RESPONSE	n/a	n/a	n/a	n/a	n/a	n/a	n/a	blue
133.581	1.0167	ITI	n/a	n/a	n/a	n/a	n/a	n/a	n/a	n/a
134.5977	0.5167	FIXCROSS	n/a	n/a	n/a	n/a	n/a	n/a	n/a	n/a
135.1144	0.4167	INK	39	Neutral	xxxxxxxx	xxxxxxxx	niebieski	blue	hit	n/a
135.5032	n/a	RESPONSE	n/a	n/a	n/a	n/a	n/a	n/a	n/a	blue
135.5311	1.0167	ITI	n/a	n/a	n/a	n/a	n/a	n/a	n/a	n/a
136.5477	0.5167	FIXCROSS	n/a	n/a	n/a	n/a	n/a	n/a	n/a	n/a
137.0644	0.4333	INK	40	Incongruent	niebieski	blue	żółty	yellow	hit	n/a
137.4708	n/a	RESPONSE	n/a	n/a	n/a	n/a	n/a	n/a	n/a	yellow
137.4978	1.0167	ITI	n/a	n/a	n/a	n/a	n/a	n/a	n/a	n/a
138.5144	0.5167	FIXCROSS	n/a	n/a	n/a	n/a	n/a	n/a	n/a	n/a
139.0311	0.5	INK	41	Neutral	xxxxxxxx	xxxxxxxx	żółty	yellow	hit	n/a
139.5023	n/a	RESPONSE	n/a	n/a	n/a	n/a	n/a	n/a	n/a	yellow
139.5311	1.0167	ITI	n/a	n/a	n/a	n/a	n/a	n/a	n/a	n/a
140.5478	0.5167	FIXCROSS	n/a	n/a	n/a	n/a	n/a	n/a	n/a	n/a
141.0645	0.6333	INK	42	Incongruent	zielony	green	czerwony	red	hit	n/a
141.6777	n/a	RESPONSE	n/a	n/a	n/a	n/a	n/a	n/a	n/a	red
141.6978	1.0167	ITI	n/a	n/a	n/a	n/a	n/a	n/a	n/a	n/a
142.7145	0.5167	FIXCROSS	n/a	n/a	n/a	n/a	n/a	n/a	n/a	n/a
143.2312	0.5167	INK	43	Incongruent	zielony	green	żółty	yellow	hit	n/a
143.7252	n/a	RESPONSE	n/a	n/a	n/a	n/a	n/a	n/a	n/a	yellow
143.7478	1.0167	ITI	n/a	n/a	n/a	n/a	n/a	n/a	n/a	n/a
144.7645	0.5167	FIXCROSS	n/a	n/a	n/a	n/a	n/a	n/a	n/a	n/a
145.2812	0.9	INK	44	Neutral	xxxxxxx	xxxxxxx	czerwony	red	hit	n/a
146.1566	n/a	RESPONSE	n/a	n/a	n/a	n/a	n/a	n/a	n/a	red
146.1812	1.0167	ITI	n/a	n/a	n/a	n/a	n/a	n/a	n/a	n/a
147.1979	0.5167	FIXCROSS	n/a	n/a	n/a	n/a	n/a	n/a	n/a	n/a
147.7145	0.6833	INK	45	Neutral	xxxxxxx	xxxxxxx	czerwony	red	hit	n/a
148.3641	n/a	RESPONSE	n/a	n/a	n/a	n/a	n/a	n/a	n/a	red
148.3979	1.0167	ITI	n/a	n/a	n/a	n/a	n/a	n/a	n/a	n/a
149.4146	0.5167	FIXCROSS	n/a	n/a	n/a	n/a	n/a	n/a	n/a	n/a
149.9312	0.7	INK	46	Incongruent	niebieski	blue	żółty	yellow	hit	n/a
150.6035	n/a	RESPONSE	n/a	n/a	n/a	n/a	n/a	n/a	n/a	yellow
150.6312	1.0167	ITI	n/a	n/a	n/a	n/a	n/a	n/a	n/a	n/a
151.6479	0.5167	FIXCROSS	n/a	n/a	n/a	n/a	n/a	n/a	n/a	n/a
152.1646	0.7834	INK	47	Neutral	xxxxx	xxxxx	czerwony	red	hit	n/a
152.923	n/a	RESPONSE	n/a	n/a	n/a	n/a	n/a	n/a	n/a	red
152.948	1.0167	ITI	n/a	n/a	n/a	n/a	n/a	n/a	n/a	n/a
153.9646	0.5167	FIXCROSS	n/a	n/a	n/a	n/a	n/a	n/a	n/a	n/a
154.4813	0.8167	INK	48	Incongruent	niebieski	blue	zielony	green	hit	n/a
155.2744	n/a	RESPONSE	n/a	n/a	n/a	n/a	n/a	n/a	n/a	green
155.298	1.0167	ITI	n/a	n/a	n/a	n/a	n/a	n/a	n/a	n/a
156.3146	0.5167	FIXCROSS	n/a	n/a	n/a	n/a	n/a	n/a	n/a	n/a
156.8313	0.8167	INK	49	Neutral	xxxxxxxx	xxxxxxxx	niebieski	blue	hit	n/a
157.6259	n/a	RESPONSE	n/a	n/a	n/a	n/a	n/a	n/a	n/a	blue
157.648	1.0167	ITI	n/a	n/a	n/a	n/a	n/a	n/a	n/a	n/a
158.6647	0.5167	FIXCROSS	n/a	n/a	n/a	n/a	n/a	n/a	n/a	n/a
159.1813	0.7333	INK	50	Incongruent	czerwony	red	zielony	green	hit	n/a
159.8813	n/a	RESPONSE	n/a	n/a	n/a	n/a	n/a	n/a	n/a	green
159.9147	1.0167	ITI	n/a	n/a	n/a	n/a	n/a	n/a	n/a	n/a
160.9314	0.5167	FIXCROSS	n/a	n/a	n/a	n/a	n/a	n/a	n/a	n/a
161.448	0.55	INK	51	Incongruent	czerwony	red	żółty	yellow	hit	n/a
161.9768	n/a	RESPONSE	n/a	n/a	n/a	n/a	n/a	n/a	n/a	yellow
161.998	1.0167	ITI	n/a	n/a	n/a	n/a	n/a	n/a	n/a	n/a
163.0147	0.5167	FIXCROSS	n/a	n/a	n/a	n/a	n/a	n/a	n/a	n/a
163.5314	0.5	INK	52	Incongruent	czerwony	red	żółty	yellow	hit	n/a
164.0083	n/a	RESPONSE	n/a	n/a	n/a	n/a	n/a	n/a	n/a	yellow
164.0314	1.0167	ITI	n/a	n/a	n/a	n/a	n/a	n/a	n/a	n/a
165.0481	0.5167	FIXCROSS	n/a	n/a	n/a	n/a	n/a	n/a	n/a	n/a
165.5648	0.7167	INK	53	Incongruent	żółty	yellow	czerwony	red	hit	n/a
166.2478	n/a	RESPONSE	n/a	n/a	n/a	n/a	n/a	n/a	n/a	red
166.2814	1.0167	ITI	n/a	n/a	n/a	n/a	n/a	n/a	n/a	n/a
167.2981	0.5167	FIXCROSS	n/a	n/a	n/a	n/a	n/a	n/a	n/a	n/a
167.8148	0.9333	INK	54	Neutral	xxxxxxxxx	xxxxxxxxx	zielony	green	hit	n/a
168.7272	n/a	RESPONSE	n/a	n/a	n/a	n/a	n/a	n/a	n/a	green
168.7481	1.0167	ITI	n/a	n/a	n/a	n/a	n/a	n/a	n/a	n/a
169.7648	0.5167	FIXCROSS	n/a	n/a	n/a	n/a	n/a	n/a	n/a	n/a
170.2815	0.7	INK	55	Incongruent	czerwony	red	zielony	green	hit	n/a
170.9506	n/a	RESPONSE	n/a	n/a	n/a	n/a	n/a	n/a	n/a	green
170.9815	1.0167	ITI	n/a	n/a	n/a	n/a	n/a	n/a	n/a	n/a
171.9982	0.5167	FIXCROSS	n/a	n/a	n/a	n/a	n/a	n/a	n/a	n/a
172.5148	0.8	INK	56	Neutral	xxxxxxxxx	xxxxxxxxx	czerwony	red	hit	n/a
173.2861	n/a	RESPONSE	n/a	n/a	n/a	n/a	n/a	n/a	n/a	red
173.3148	1.0167	ITI	n/a	n/a	n/a	n/a	n/a	n/a	n/a	n/a
174.3315	0.5167	FIXCROSS	n/a	n/a	n/a	n/a	n/a	n/a	n/a	n/a
174.8482	0.8167	INK	57	Incongruent	żółty	yellow	niebieski	blue	hit	n/a
175.6375	n/a	RESPONSE	n/a	n/a	n/a	n/a	n/a	n/a	n/a	blue
175.6649	1.0167	ITI	n/a	n/a	n/a	n/a	n/a	n/a	n/a	n/a
176.6816	0.5167	FIXCROSS	n/a	n/a	n/a	n/a	n/a	n/a	n/a	n/a
177.1982	1.0167	INK	58	Neutral	xxxxxxxxx	xxxxxxxxx	żółty	yellow	hit	n/a
178.1969	n/a	RESPONSE	n/a	n/a	n/a	n/a	n/a	n/a	n/a	yellow
178.2149	1.0167	ITI	n/a	n/a	n/a	n/a	n/a	n/a	n/a	n/a
179.2316	0.5167	FIXCROSS	n/a	n/a	n/a	n/a	n/a	n/a	n/a	n/a
179.7483	0.7833	INK	59	Incongruent	zielony	green	niebieski	blue	hit	n/a
180.5003	n/a	RESPONSE	n/a	n/a	n/a	n/a	n/a	n/a	n/a	blue
180.5316	1.0167	ITI	n/a	n/a	n/a	n/a	n/a	n/a	n/a	n/a
181.5483	0.5167	FIXCROSS	n/a	n/a	n/a	n/a	n/a	n/a	n/a	n/a
182.065	0.5	INK	60	Neutral	xxxxx	xxxxx	niebieski	blue	hit	n/a
182.5318	n/a	RESPONSE	n/a	n/a	n/a	n/a	n/a	n/a	n/a	blue
182.565	1.0167	ITI	n/a	n/a	n/a	n/a	n/a	n/a	n/a	n/a
183.5816	0.5167	FIXCROSS	n/a	n/a	n/a	n/a	n/a	n/a	n/a	n/a
184.0983	0.3833	INK	61	Neutral	xxxxxxx	xxxxxxx	niebieski	blue	hit	n/a
184.4514	n/a	RESPONSE	n/a	n/a	n/a	n/a	n/a	n/a	n/a	blue
184.4817	1.0167	ITI	n/a	n/a	n/a	n/a	n/a	n/a	n/a	n/a
185.4983	0.5167	FIXCROSS	n/a	n/a	n/a	n/a	n/a	n/a	n/a	n/a
186.015	0.8	INK	62	Neutral	xxxxxxxx	xxxxxxxx	zielony	green	hit	n/a
186.7868	n/a	RESPONSE	n/a	n/a	n/a	n/a	n/a	n/a	n/a	green
186.815	1.0167	ITI	n/a	n/a	n/a	n/a	n/a	n/a	n/a	n/a
187.8317	0.5167	FIXCROSS	n/a	n/a	n/a	n/a	n/a	n/a	n/a	n/a
188.3484	0.75	INK	63	Neutral	xxxxxxxx	xxxxxxxx	niebieski	blue	hit	n/a
189.0743	n/a	RESPONSE	n/a	n/a	n/a	n/a	n/a	n/a	n/a	blue
189.0984	1.0167	ITI	n/a	n/a	n/a	n/a	n/a	n/a	n/a	n/a
190.115	0.5167	FIXCROSS	n/a	n/a	n/a	n/a	n/a	n/a	n/a	n/a
190.6317	1.1167	INK	64	Incongruent	zielony	green	czerwony	red	hit	n/a
191.7296	n/a	RESPONSE	n/a	n/a	n/a	n/a	n/a	n/a	n/a	red
191.7484	1.0167	ITI	n/a	n/a	n/a	n/a	n/a	n/a	n/a	n/a
192.7651	0.5167	FIXCROSS	n/a	n/a	n/a	n/a	n/a	n/a	n/a	n/a
193.2818	0.6167	INK	65	Neutral	xxxxxxxx	xxxxxxxx	zielony	green	incorrect	n/a
193.8731	n/a	RESPONSE	n/a	n/a	n/a	n/a	n/a	n/a	n/a	blue
193.8984	1.0167	ITI	n/a	n/a	n/a	n/a	n/a	n/a	n/a	n/a
194.9151	0.5167	FIXCROSS	n/a	n/a	n/a	n/a	n/a	n/a	n/a	n/a
195.4318	0.5	INK	66	Incongruent	czerwony	red	niebieski	blue	hit	n/a
195.9046	n/a	RESPONSE	n/a	n/a	n/a	n/a	n/a	n/a	n/a	blue
195.9318	1.0167	ITI	n/a	n/a	n/a	n/a	n/a	n/a	n/a	n/a
196.9485	0.5167	FIXCROSS	n/a	n/a	n/a	n/a	n/a	n/a	n/a	n/a
197.4651	0.95	INK	67	Neutral	xxxxxxxxx	xxxxxxxxx	zielony	green	hit	n/a
198.384	n/a	RESPONSE	n/a	n/a	n/a	n/a	n/a	n/a	n/a	green
198.4152	1.0167	ITI	n/a	n/a	n/a	n/a	n/a	n/a	n/a	n/a
199.4318	0.5167	FIXCROSS	n/a	n/a	n/a	n/a	n/a	n/a	n/a	n/a
199.9485	0.5333	INK	68	Neutral	xxxxx	xxxxx	zielony	green	hit	n/a
200.4635	n/a	RESPONSE	n/a	n/a	n/a	n/a	n/a	n/a	n/a	green
200.4818	1.0167	ITI	n/a	n/a	n/a	n/a	n/a	n/a	n/a	n/a
201.4985	0.5167	FIXCROSS	n/a	n/a	n/a	n/a	n/a	n/a	n/a	n/a
202.0152	0.6	INK	69	Neutral	xxxxx	xxxxx	niebieski	blue	hit	n/a
202.591	n/a	RESPONSE	n/a	n/a	n/a	n/a	n/a	n/a	n/a	blue
202.6152	1.0167	ITI	n/a	n/a	n/a	n/a	n/a	n/a	n/a	n/a
203.6319	0.5167	FIXCROSS	n/a	n/a	n/a	n/a	n/a	n/a	n/a	n/a
204.1485	0.5	INK	70	Incongruent	żółty	yellow	czerwony	red	hit	n/a
204.6225	n/a	RESPONSE	n/a	n/a	n/a	n/a	n/a	n/a	n/a	red
204.6486	1.0167	ITI	n/a	n/a	n/a	n/a	n/a	n/a	n/a	n/a
205.6652	0.5167	FIXCROSS	n/a	n/a	n/a	n/a	n/a	n/a	n/a	n/a
206.1819	0.75	INK	71	Incongruent	zielony	green	żółty	yellow	hit	n/a
206.91	n/a	RESPONSE	n/a	n/a	n/a	n/a	n/a	n/a	n/a	yellow
206.9319	1.0167	ITI	n/a	n/a	n/a	n/a	n/a	n/a	n/a	n/a
207.9486	0.5167	FIXCROSS	n/a	n/a	n/a	n/a	n/a	n/a	n/a	n/a
208.4653	0.5333	INK	72	Neutral	xxxxxxxxx	xxxxxxxxx	czerwony	red	hit	n/a
208.9735	n/a	RESPONSE	n/a	n/a	n/a	n/a	n/a	n/a	n/a	red
208.9986	1.0833	ITI	n/a	n/a	n/a	n/a	n/a	n/a	n/a	n/a
213.3404	n/a	RESPONSE	n/a	n/a	n/a	n/a	n/a	n/a	n/a	n/a
213.3653	1.0	ITI	n/a	n/a	n/a	n/a	n/a	n/a	n/a	n/a
214.3653	0.5	FIXCROSS	n/a	n/a	n/a	n/a	n/a	n/a	n/a	n/a
214.8653	1.4333	T_COLOR_NAME	1	Incongruent	zielony	green	niebieski	blue	hit	n/a
216.2678	n/a	RESPONSE	n/a	n/a	n/a	n/a	n/a	n/a	n/a	green
216.2987	0.5167	FEEDBACK	n/a	n/a	n/a	n/a	n/a	n/a	n/a	n/a
216.8154	1.0167	ITI	n/a	n/a	n/a	n/a	n/a	n/a	n/a	n/a
217.832	0.5167	FIXCROSS	n/a	n/a	n/a	n/a	n/a	n/a	n/a	n/a
218.3487	0.9167	T_COLOR_NAME	2	Incongruent	czerwony	red	zielony	green	hit	n/a
219.243	n/a	RESPONSE	n/a	n/a	n/a	n/a	n/a	n/a	n/a	red
219.2654	0.5167	FEEDBACK	n/a	n/a	n/a	n/a	n/a	n/a	n/a	n/a
219.7821	1.0167	ITI	n/a	n/a	n/a	n/a	n/a	n/a	n/a	n/a
220.7988	0.5167	FIXCROSS	n/a	n/a	n/a	n/a	n/a	n/a	n/a	n/a
221.3154	0.9834	T_COLOR_NAME	3	Neutral	żółty	yellow	Neutral	Neutral	hit	n/a
222.2663	n/a	RESPONSE	n/a	n/a	n/a	n/a	n/a	n/a	n/a	yellow
222.2988	0.5167	FEEDBACK	n/a	n/a	n/a	n/a	n/a	n/a	n/a	n/a
222.8154	1.0167	ITI	n/a	n/a	n/a	n/a	n/a	n/a	n/a	n/a
223.8321	0.5167	FIXCROSS	n/a	n/a	n/a	n/a	n/a	n/a	n/a	n/a
224.3488	0.7167	T_COLOR_NAME	4	Neutral	niebieski	blue	Neutral	Neutral	hit	n/a
225.0336	n/a	RESPONSE	n/a	n/a	n/a	n/a	n/a	n/a	n/a	blue
225.0655	0.5167	FEEDBACK	n/a	n/a	n/a	n/a	n/a	n/a	n/a	n/a
225.5821	1.0167	ITI	n/a	n/a	n/a	n/a	n/a	n/a	n/a	n/a
226.5988	0.5167	FIXCROSS	n/a	n/a	n/a	n/a	n/a	n/a	n/a	n/a
227.1155	0.8667	T_COLOR_NAME	5	Neutral	czerwony	red	Neutral	Neutral	hit	n/a
227.9609	n/a	RESPONSE	n/a	n/a	n/a	n/a	n/a	n/a	n/a	red
227.9822	0.5167	FEEDBACK	n/a	n/a	n/a	n/a	n/a	n/a	n/a	n/a
228.4988	1.0167	ITI	n/a	n/a	n/a	n/a	n/a	n/a	n/a	n/a
229.5155	0.5167	FIXCROSS	n/a	n/a	n/a	n/a	n/a	n/a	n/a	n/a
230.0322	0.6333	T_COLOR_NAME	6	Incongruent	żółty	yellow	zielony	green	hit	n/a
230.6322	n/a	RESPONSE	n/a	n/a	n/a	n/a	n/a	n/a	n/a	yellow
230.6655	0.5167	FEEDBACK	n/a	n/a	n/a	n/a	n/a	n/a	n/a	n/a
231.1822	1.0167	ITI	n/a	n/a	n/a	n/a	n/a	n/a	n/a	n/a
232.1989	0.5167	FIXCROSS	n/a	n/a	n/a	n/a	n/a	n/a	n/a	n/a
232.7156	0.45	T_COLOR_NAME	7	Incongruent	czerwony	red	żółty	yellow	incorrect	n/a
233.1436	n/a	RESPONSE	n/a	n/a	n/a	n/a	n/a	n/a	n/a	yellow
233.1656	0.5167	FEEDBACK	n/a	n/a	n/a	n/a	n/a	n/a	n/a	n/a
233.1756	n/a	RESPONSE	n/a	n/a	n/a	n/a	n/a	n/a	n/a	blue
233.6822	1.0167	ITI	n/a	n/a	n/a	n/a	n/a	n/a	n/a	n/a
234.6989	0.5167	FIXCROSS	n/a	n/a	n/a	n/a	n/a	n/a	n/a	n/a
235.2156	0.9667	T_COLOR_NAME	8	Incongruent	żółty	yellow	czerwony	red	hit	n/a
236.1509	n/a	RESPONSE	n/a	n/a	n/a	n/a	n/a	n/a	n/a	yellow
236.1823	0.5167	FEEDBACK	n/a	n/a	n/a	n/a	n/a	n/a	n/a	n/a
236.6989	1.0167	ITI	n/a	n/a	n/a	n/a	n/a	n/a	n/a	n/a
237.7156	0.5167	FIXCROSS	n/a	n/a	n/a	n/a	n/a	n/a	n/a	n/a
238.2323	0.9334	T_COLOR_NAME	9	Incongruent	żółty	yellow	niebieski	blue	hit	n/a
239.1422	n/a	RESPONSE	n/a	n/a	n/a	n/a	n/a	n/a	n/a	yellow
239.1656	0.5167	FEEDBACK	n/a	n/a	n/a	n/a	n/a	n/a	n/a	n/a
239.6823	1.0167	ITI	n/a	n/a	n/a	n/a	n/a	n/a	n/a	n/a
240.699	0.5167	FIXCROSS	n/a	n/a	n/a	n/a	n/a	n/a	n/a	n/a
241.2157	0.8167	T_COLOR_NAME	10	Incongruent	niebieski	blue	czerwony	red	hit	n/a
242.0055	n/a	RESPONSE	n/a	n/a	n/a	n/a	n/a	n/a	n/a	blue
242.0323	0.5167	FEEDBACK	n/a	n/a	n/a	n/a	n/a	n/a	n/a	n/a
242.549	1.0167	ITI	n/a	n/a	n/a	n/a	n/a	n/a	n/a	n/a
243.5657	0.5167	FIXCROSS	n/a	n/a	n/a	n/a	n/a	n/a	n/a	n/a
244.0824	0.75	T_COLOR_NAME	11	Neutral	żółty	yellow	Neutral	Neutral	incorrect	n/a
244.8048	n/a	RESPONSE	n/a	n/a	n/a	n/a	n/a	n/a	n/a	blue
244.8324	0.5167	FEEDBACK	n/a	n/a	n/a	n/a	n/a	n/a	n/a	n/a
245.349	1.0167	ITI	n/a	n/a	n/a	n/a	n/a	n/a	n/a	n/a
245.8606	n/a	RESPONSE	n/a	n/a	n/a	n/a	n/a	n/a	n/a	yellow
246.3657	0.5167	FIXCROSS	n/a	n/a	n/a	n/a	n/a	n/a	n/a	n/a
246.8824	0.8333	T_COLOR_NAME	12	Neutral	niebieski	blue	Neutral	Neutral	hit	n/a
247.6841	n/a	RESPONSE	n/a	n/a	n/a	n/a	n/a	n/a	n/a	blue
247.7157	0.5167	FEEDBACK	n/a	n/a	n/a	n/a	n/a	n/a	n/a	n/a
248.2324	1.0333	ITI	n/a	n/a	n/a	n/a	n/a	n/a	n/a	n/a
250.3875	n/a	RESPONSE	n/a	n/a	n/a	n/a	n/a	n/a	n/a	n/a
250.4491	1.0167	ITI	n/a	n/a	n/a	n/a	n/a	n/a	n/a	n/a
251.4658	0.5167	FIXCROSS	n/a	n/a	n/a	n/a	n/a	n/a	n/a	n/a
251.9824	0.95	COLOR_NAME	1	Incongruent	żółty	yellow	czerwony	red	hit	n/a
252.8988	n/a	RESPONSE	n/a	n/a	n/a	n/a	n/a	n/a	n/a	yellow
252.9325	1.0167	ITI	n/a	n/a	n/a	n/a	n/a	n/a	n/a	n/a
253.9491	0.5167	FIXCROSS	n/a	n/a	n/a	n/a	n/a	n/a	n/a	n/a
254.4658	0.75	COLOR_NAME	2	Incongruent	żółty	yellow	niebieski	blue	hit	n/a
255.1863	n/a	RESPONSE	n/a	n/a	n/a	n/a	n/a	n/a	n/a	yellow
255.2158	1.0167	ITI	n/a	n/a	n/a	n/a	n/a	n/a	n/a	n/a
256.2325	0.5167	FIXCROSS	n/a	n/a	n/a	n/a	n/a	n/a	n/a	n/a
256.7492	0.8167	COLOR_NAME	3	Neutral	czerwony	red	Neutral	Neutral	hit	n/a
257.5378	n/a	RESPONSE	n/a	n/a	n/a	n/a	n/a	n/a	n/a	red
257.5658	1.0167	ITI	n/a	n/a	n/a	n/a	n/a	n/a	n/a	n/a
258.5825	0.5167	FIXCROSS	n/a	n/a	n/a	n/a	n/a	n/a	n/a	n/a
259.0992	0.9833	COLOR_NAME	4	Incongruent	niebieski	blue	czerwony	red	hit	n/a
260.0491	n/a	RESPONSE	n/a	n/a	n/a	n/a	n/a	n/a	n/a	blue
260.0825	1.0167	ITI	n/a	n/a	n/a	n/a	n/a	n/a	n/a	n/a
261.0992	0.5167	FIXCROSS	n/a	n/a	n/a	n/a	n/a	n/a	n/a	n/a
261.6159	0.7333	COLOR_NAME	5	Neutral	zielony	green	Neutral	Neutral	hit	n/a
262.3206	n/a	RESPONSE	n/a	n/a	n/a	n/a	n/a	n/a	n/a	green
262.3492	1.0167	ITI	n/a	n/a	n/a	n/a	n/a	n/a	n/a	n/a
263.3659	0.5167	FIXCROSS	n/a	n/a	n/a	n/a	n/a	n/a	n/a	n/a
263.8826	0.7667	COLOR_NAME	6	Incongruent	żółty	yellow	zielony	green	hit	n/a
264.624	n/a	RESPONSE	n/a	n/a	n/a	n/a	n/a	n/a	n/a	yellow
264.64	n/a	RESPONSE	n/a	n/a	n/a	n/a	n/a	n/a	n/a	blue
264.6493	1.0167	ITI	n/a	n/a	n/a	n/a	n/a	n/a	n/a	n/a
265.6659	0.5167	FIXCROSS	n/a	n/a	n/a	n/a	n/a	n/a	n/a	n/a
266.1826	0.85	COLOR_NAME	7	Neutral	żółty	yellow	Neutral	Neutral	hit	n/a
267.0075	n/a	RESPONSE	n/a	n/a	n/a	n/a	n/a	n/a	n/a	yellow
267.0326	1.0167	ITI	n/a	n/a	n/a	n/a	n/a	n/a	n/a	n/a
268.0493	0.5167	FIXCROSS	n/a	n/a	n/a	n/a	n/a	n/a	n/a	n/a
268.566	0.7667	COLOR_NAME	8	Incongruent	żółty	yellow	czerwony	red	hit	n/a
269.3109	n/a	RESPONSE	n/a	n/a	n/a	n/a	n/a	n/a	n/a	yellow
269.3326	1.0167	ITI	n/a	n/a	n/a	n/a	n/a	n/a	n/a	n/a
270.3493	0.5167	FIXCROSS	n/a	n/a	n/a	n/a	n/a	n/a	n/a	n/a
270.866	0.8	COLOR_NAME	9	Neutral	zielony	green	Neutral	Neutral	hit	n/a
271.6463	n/a	RESPONSE	n/a	n/a	n/a	n/a	n/a	n/a	n/a	green
271.666	1.0167	ITI	n/a	n/a	n/a	n/a	n/a	n/a	n/a	n/a
272.6827	0.5167	FIXCROSS	n/a	n/a	n/a	n/a	n/a	n/a	n/a	n/a
273.1994	0.6167	COLOR_NAME	10	Incongruent	czerwony	red	żółty	yellow	hit	n/a
273.7898	n/a	RESPONSE	n/a	n/a	n/a	n/a	n/a	n/a	n/a	red
273.816	1.0167	ITI	n/a	n/a	n/a	n/a	n/a	n/a	n/a	n/a
274.8327	0.5167	FIXCROSS	n/a	n/a	n/a	n/a	n/a	n/a	n/a	n/a
275.3494	0.7	COLOR_NAME	11	Neutral	niebieski	blue	Neutral	Neutral	hit	n/a
276.0293	n/a	RESPONSE	n/a	n/a	n/a	n/a	n/a	n/a	n/a	blue
276.0494	1.0167	ITI	n/a	n/a	n/a	n/a	n/a	n/a	n/a	n/a
277.0661	0.5167	FIXCROSS	n/a	n/a	n/a	n/a	n/a	n/a	n/a	n/a
277.5828	0.6	COLOR_NAME	12	Neutral	niebieski	blue	Neutral	Neutral	hit	n/a
278.1568	n/a	RESPONSE	n/a	n/a	n/a	n/a	n/a	n/a	n/a	blue
278.1828	1.0167	ITI	n/a	n/a	n/a	n/a	n/a	n/a	n/a	n/a
279.1994	0.5167	FIXCROSS	n/a	n/a	n/a	n/a	n/a	n/a	n/a	n/a
279.7161	0.65	COLOR_NAME	13	Neutral	czerwony	red	Neutral	Neutral	hit	n/a
280.3483	n/a	RESPONSE	n/a	n/a	n/a	n/a	n/a	n/a	n/a	red
280.3661	1.0167	ITI	n/a	n/a	n/a	n/a	n/a	n/a	n/a	n/a
281.3828	0.5167	FIXCROSS	n/a	n/a	n/a	n/a	n/a	n/a	n/a	n/a
281.8995	0.7334	COLOR_NAME	14	Neutral	zielony	green	Neutral	Neutral	hit	n/a
282.6037	n/a	RESPONSE	n/a	n/a	n/a	n/a	n/a	n/a	n/a	green
282.6328	1.0167	ITI	n/a	n/a	n/a	n/a	n/a	n/a	n/a	n/a
283.6495	0.5167	FIXCROSS	n/a	n/a	n/a	n/a	n/a	n/a	n/a	n/a
284.1662	0.65	COLOR_NAME	15	Neutral	niebieski	blue	Neutral	Neutral	hit	n/a
284.7951	n/a	RESPONSE	n/a	n/a	n/a	n/a	n/a	n/a	n/a	blue
284.8162	1.0167	ITI	n/a	n/a	n/a	n/a	n/a	n/a	n/a	n/a
285.8328	0.5167	FIXCROSS	n/a	n/a	n/a	n/a	n/a	n/a	n/a	n/a
286.3495	0.7833	COLOR_NAME	16	Neutral	czerwony	red	Neutral	Neutral	hit	n/a
287.1146	n/a	RESPONSE	n/a	n/a	n/a	n/a	n/a	n/a	n/a	red
287.1329	1.0167	ITI	n/a	n/a	n/a	n/a	n/a	n/a	n/a	n/a
288.1495	0.5167	FIXCROSS	n/a	n/a	n/a	n/a	n/a	n/a	n/a	n/a
288.6662	0.6167	COLOR_NAME	17	Neutral	żółty	yellow	Neutral	Neutral	hit	n/a
289.2581	n/a	RESPONSE	n/a	n/a	n/a	n/a	n/a	n/a	n/a	yellow
289.2829	1.0167	ITI	n/a	n/a	n/a	n/a	n/a	n/a	n/a	n/a
289.466	n/a	RESPONSE	n/a	n/a	n/a	n/a	n/a	n/a	n/a	yellow
290.2996	0.5167	FIXCROSS	n/a	n/a	n/a	n/a	n/a	n/a	n/a	n/a
290.8162	0.6667	COLOR_NAME	18	Neutral	czerwony	red	Neutral	Neutral	incorrect	n/a
291.4495	n/a	RESPONSE	n/a	n/a	n/a	n/a	n/a	n/a	n/a	green
291.4829	1.0167	ITI	n/a	n/a	n/a	n/a	n/a	n/a	n/a	n/a
292.4996	0.5167	FIXCROSS	n/a	n/a	n/a	n/a	n/a	n/a	n/a	n/a
293.0163	0.6667	COLOR_NAME	19	Neutral	zielony	green	Neutral	Neutral	hit	n/a
293.657	n/a	RESPONSE	n/a	n/a	n/a	n/a	n/a	n/a	n/a	green
293.6829	1.0167	ITI	n/a	n/a	n/a	n/a	n/a	n/a	n/a	n/a
294.6996	0.5167	FIXCROSS	n/a	n/a	n/a	n/a	n/a	n/a	n/a	n/a
295.2163	0.7	COLOR_NAME	20	Neutral	żółty	yellow	Neutral	Neutral	hit	n/a
295.8964	n/a	RESPONSE	n/a	n/a	n/a	n/a	n/a	n/a	n/a	yellow
295.9163	1.0167	ITI	n/a	n/a	n/a	n/a	n/a	n/a	n/a	n/a
296.933	0.5167	FIXCROSS	n/a	n/a	n/a	n/a	n/a	n/a	n/a	n/a
297.4496	1.1	COLOR_NAME	21	Incongruent	zielony	green	niebieski	blue	hit	n/a
298.5198	n/a	RESPONSE	n/a	n/a	n/a	n/a	n/a	n/a	n/a	green
298.5497	1.0167	ITI	n/a	n/a	n/a	n/a	n/a	n/a	n/a	n/a
299.5663	0.5167	FIXCROSS	n/a	n/a	n/a	n/a	n/a	n/a	n/a	n/a
300.083	0.8167	COLOR_NAME	22	Incongruent	niebieski	blue	czerwony	red	hit	n/a
300.8713	n/a	RESPONSE	n/a	n/a	n/a	n/a	n/a	n/a	n/a	blue
300.8997	1.0167	ITI	n/a	n/a	n/a	n/a	n/a	n/a	n/a	n/a
301.9164	0.5167	FIXCROSS	n/a	n/a	n/a	n/a	n/a	n/a	n/a	n/a
302.433	0.5	COLOR_NAME	23	Incongruent	żółty	yellow	niebieski	blue	hit	n/a
302.9028	n/a	RESPONSE	n/a	n/a	n/a	n/a	n/a	n/a	n/a	yellow
302.933	1.0167	ITI	n/a	n/a	n/a	n/a	n/a	n/a	n/a	n/a
303.9497	0.5167	FIXCROSS	n/a	n/a	n/a	n/a	n/a	n/a	n/a	n/a
304.4664	0.6333	COLOR_NAME	24	Neutral	żółty	yellow	Neutral	Neutral	hit	n/a
305.0782	n/a	RESPONSE	n/a	n/a	n/a	n/a	n/a	n/a	n/a	yellow
305.0997	1.0167	ITI	n/a	n/a	n/a	n/a	n/a	n/a	n/a	n/a
306.1164	0.5167	FIXCROSS	n/a	n/a	n/a	n/a	n/a	n/a	n/a	n/a
306.6331	0.6833	COLOR_NAME	25	Neutral	zielony	green	Neutral	Neutral	hit	n/a
307.2857	n/a	RESPONSE	n/a	n/a	n/a	n/a	n/a	n/a	n/a	green
307.3164	1.0167	ITI	n/a	n/a	n/a	n/a	n/a	n/a	n/a	n/a
308.3331	0.5167	FIXCROSS	n/a	n/a	n/a	n/a	n/a	n/a	n/a	n/a
308.8498	0.6833	COLOR_NAME	26	Neutral	niebieski	blue	Neutral	Neutral	hit	n/a
309.5092	n/a	RESPONSE	n/a	n/a	n/a	n/a	n/a	n/a	n/a	blue
309.5331	1.0167	ITI	n/a	n/a	n/a	n/a	n/a	n/a	n/a	n/a
310.5498	0.5167	FIXCROSS	n/a	n/a	n/a	n/a	n/a	n/a	n/a	n/a
311.0665	0.6667	COLOR_NAME	27	Incongruent	niebieski	blue	żółty	yellow	hit	n/a
311.7006	n/a	RESPONSE	n/a	n/a	n/a	n/a	n/a	n/a	n/a	blue
311.7332	1.0167	ITI	n/a	n/a	n/a	n/a	n/a	n/a	n/a	n/a
312.7498	0.5167	FIXCROSS	n/a	n/a	n/a	n/a	n/a	n/a	n/a	n/a
313.2665	1.3833	COLOR_NAME	28	Neutral	żółty	yellow	Neutral	Neutral	hit	n/a
314.6279	n/a	RESPONSE	n/a	n/a	n/a	n/a	n/a	n/a	n/a	yellow
314.6498	1.0167	ITI	n/a	n/a	n/a	n/a	n/a	n/a	n/a	n/a
315.6665	0.5167	FIXCROSS	n/a	n/a	n/a	n/a	n/a	n/a	n/a	n/a
316.1832	0.7667	COLOR_NAME	29	Incongruent	zielony	green	żółty	yellow	hit	n/a
316.9314	n/a	RESPONSE	n/a	n/a	n/a	n/a	n/a	n/a	n/a	green
316.9499	1.0167	ITI	n/a	n/a	n/a	n/a	n/a	n/a	n/a	n/a
317.9665	0.5167	FIXCROSS	n/a	n/a	n/a	n/a	n/a	n/a	n/a	n/a
318.4832	0.75	COLOR_NAME	30	Neutral	niebieski	blue	Neutral	Neutral	hit	n/a
319.2028	n/a	RESPONSE	n/a	n/a	n/a	n/a	n/a	n/a	n/a	blue
319.2332	1.0167	ITI	n/a	n/a	n/a	n/a	n/a	n/a	n/a	n/a
320.2499	0.5167	FIXCROSS	n/a	n/a	n/a	n/a	n/a	n/a	n/a	n/a
320.7666	0.7	COLOR_NAME	31	Incongruent	czerwony	red	żółty	yellow	hit	n/a
321.4423	n/a	RESPONSE	n/a	n/a	n/a	n/a	n/a	n/a	n/a	red
321.4666	1.0167	ITI	n/a	n/a	n/a	n/a	n/a	n/a	n/a	n/a
322.4833	0.5167	FIXCROSS	n/a	n/a	n/a	n/a	n/a	n/a	n/a	n/a
322.9999	0.85	COLOR_NAME	32	Incongruent	żółty	yellow	niebieski	blue	hit	n/a
323.8257	n/a	RESPONSE	n/a	n/a	n/a	n/a	n/a	n/a	n/a	yellow
323.85	1.0167	ITI	n/a	n/a	n/a	n/a	n/a	n/a	n/a	n/a
324.8666	0.5167	FIXCROSS	n/a	n/a	n/a	n/a	n/a	n/a	n/a	n/a
325.3833	0.6833	COLOR_NAME	33	Incongruent	niebieski	blue	zielony	green	hit	n/a
326.0332	n/a	RESPONSE	n/a	n/a	n/a	n/a	n/a	n/a	n/a	blue
326.0666	1.0167	ITI	n/a	n/a	n/a	n/a	n/a	n/a	n/a	n/a
327.0833	0.5167	FIXCROSS	n/a	n/a	n/a	n/a	n/a	n/a	n/a	n/a
327.6	0.8	COLOR_NAME	34	Neutral	czerwony	red	Neutral	Neutral	incorrect	n/a
328.3686	n/a	RESPONSE	n/a	n/a	n/a	n/a	n/a	n/a	n/a	green
328.4	1.0167	ITI	n/a	n/a	n/a	n/a	n/a	n/a	n/a	n/a
329.4167	0.5167	FIXCROSS	n/a	n/a	n/a	n/a	n/a	n/a	n/a	n/a
329.9334	0.5	COLOR_NAME	35	Incongruent	zielony	green	żółty	yellow	incorrect	n/a
330.4001	n/a	RESPONSE	n/a	n/a	n/a	n/a	n/a	n/a	n/a	yellow
330.4334	1.0167	ITI	n/a	n/a	n/a	n/a	n/a	n/a	n/a	n/a
331.45	0.5167	FIXCROSS	n/a	n/a	n/a	n/a	n/a	n/a	n/a	n/a
331.9667	0.85	COLOR_NAME	36	Incongruent	zielony	green	czerwony	red	incorrect	n/a
332.7835	n/a	RESPONSE	n/a	n/a	n/a	n/a	n/a	n/a	n/a	blue
332.8167	1.0167	ITI	n/a	n/a	n/a	n/a	n/a	n/a	n/a	n/a
333.8334	0.5167	FIXCROSS	n/a	n/a	n/a	n/a	n/a	n/a	n/a	n/a
334.3501	0.3	COLOR_NAME	37	Incongruent	niebieski	blue	zielony	green	incorrect	n/a
334.6231	n/a	RESPONSE	n/a	n/a	n/a	n/a	n/a	n/a	n/a	green
334.6501	1.0167	ITI	n/a	n/a	n/a	n/a	n/a	n/a	n/a	n/a
335.6668	0.5167	FIXCROSS	n/a	n/a	n/a	n/a	n/a	n/a	n/a	n/a
336.1834	0.9667	COLOR_NAME	38	Incongruent	niebieski	blue	czerwony	red	hit	n/a
337.1185	n/a	RESPONSE	n/a	n/a	n/a	n/a	n/a	n/a	n/a	blue
337.1501	1.0167	ITI	n/a	n/a	n/a	n/a	n/a	n/a	n/a	n/a
338.1668	0.5167	FIXCROSS	n/a	n/a	n/a	n/a	n/a	n/a	n/a	n/a
338.6835	0.8	COLOR_NAME	39	Neutral	czerwony	red	Neutral	Neutral	hit	n/a
339.4539	n/a	RESPONSE	n/a	n/a	n/a	n/a	n/a	n/a	n/a	red
339.4835	1.0167	ITI	n/a	n/a	n/a	n/a	n/a	n/a	n/a	n/a
340.5001	0.5167	FIXCROSS	n/a	n/a	n/a	n/a	n/a	n/a	n/a	n/a
341.0168	0.75	COLOR_NAME	40	Neutral	czerwony	red	Neutral	Neutral	hit	n/a
341.7414	n/a	RESPONSE	n/a	n/a	n/a	n/a	n/a	n/a	n/a	red
341.7668	1.0167	ITI	n/a	n/a	n/a	n/a	n/a	n/a	n/a	n/a
342.7835	0.5167	FIXCROSS	n/a	n/a	n/a	n/a	n/a	n/a	n/a	n/a
343.3002	0.6667	COLOR_NAME	41	Neutral	zielony	green	Neutral	Neutral	hit	n/a
343.9488	n/a	RESPONSE	n/a	n/a	n/a	n/a	n/a	n/a	n/a	green
343.9669	1.0167	ITI	n/a	n/a	n/a	n/a	n/a	n/a	n/a	n/a
344.9835	0.5167	FIXCROSS	n/a	n/a	n/a	n/a	n/a	n/a	n/a	n/a
345.5002	0.4333	COLOR_NAME	42	Incongruent	zielony	green	żółty	yellow	hit	n/a
345.9164	n/a	RESPONSE	n/a	n/a	n/a	n/a	n/a	n/a	n/a	green
345.9335	1.0167	ITI	n/a	n/a	n/a	n/a	n/a	n/a	n/a	n/a
346.9502	0.5167	FIXCROSS	n/a	n/a	n/a	n/a	n/a	n/a	n/a	n/a
347.4669	0.4667	COLOR_NAME	43	Neutral	zielony	green	Neutral	Neutral	hit	n/a
347.8999	n/a	RESPONSE	n/a	n/a	n/a	n/a	n/a	n/a	n/a	green
347.9336	1.0167	ITI	n/a	n/a	n/a	n/a	n/a	n/a	n/a	n/a
348.9502	0.5167	FIXCROSS	n/a	n/a	n/a	n/a	n/a	n/a	n/a	n/a
349.4669	0.75	COLOR_NAME	44	Incongruent	czerwony	red	niebieski	blue	hit	n/a
350.1873	n/a	RESPONSE	n/a	n/a	n/a	n/a	n/a	n/a	n/a	red
350.2169	1.0167	ITI	n/a	n/a	n/a	n/a	n/a	n/a	n/a	n/a
351.2336	0.5167	FIXCROSS	n/a	n/a	n/a	n/a	n/a	n/a	n/a	n/a
351.7503	0.3167	COLOR_NAME	45	Incongruent	niebieski	blue	żółty	yellow	incorrect	n/a
352.0429	n/a	RESPONSE	n/a	n/a	n/a	n/a	n/a	n/a	n/a	red
352.067	1.0167	ITI	n/a	n/a	n/a	n/a	n/a	n/a	n/a	n/a
353.0836	0.5167	FIXCROSS	n/a	n/a	n/a	n/a	n/a	n/a	n/a	n/a
353.6003	0.8667	COLOR_NAME	46	Incongruent	zielony	green	niebieski	blue	hit	n/a
354.4423	n/a	RESPONSE	n/a	n/a	n/a	n/a	n/a	n/a	n/a	green
354.467	1.0167	ITI	n/a	n/a	n/a	n/a	n/a	n/a	n/a	n/a
355.4837	0.5167	FIXCROSS	n/a	n/a	n/a	n/a	n/a	n/a	n/a	n/a
356.0003	0.6667	COLOR_NAME	47	Incongruent	żółty	yellow	zielony	green	incorrect	n/a
356.6498	n/a	RESPONSE	n/a	n/a	n/a	n/a	n/a	n/a	n/a	blue
356.667	1.0167	ITI	n/a	n/a	n/a	n/a	n/a	n/a	n/a	n/a
356.8097	n/a	RESPONSE	n/a	n/a	n/a	n/a	n/a	n/a	n/a	yellow
357.6837	0.5167	FIXCROSS	n/a	n/a	n/a	n/a	n/a	n/a	n/a	n/a
358.2004	0.7667	COLOR_NAME	48	Incongruent	czerwony	red	zielony	green	hit	n/a
358.9372	n/a	RESPONSE	n/a	n/a	n/a	n/a	n/a	n/a	n/a	red
358.967	1.0167	ITI	n/a	n/a	n/a	n/a	n/a	n/a	n/a	n/a
359.9837	0.5167	FIXCROSS	n/a	n/a	n/a	n/a	n/a	n/a	n/a	n/a
360.5004	1.75	COLOR_NAME	49	Incongruent	niebieski	blue	żółty	yellow	hit	n/a
362.2324	n/a	RESPONSE	n/a	n/a	n/a	n/a	n/a	n/a	n/a	blue
362.2504	1.0167	ITI	n/a	n/a	n/a	n/a	n/a	n/a	n/a	n/a
363.2671	0.5167	FIXCROSS	n/a	n/a	n/a	n/a	n/a	n/a	n/a	n/a
363.7838	0.65	COLOR_NAME	50	Neutral	czerwony	red	Neutral	Neutral	hit	n/a
364.4079	n/a	RESPONSE	n/a	n/a	n/a	n/a	n/a	n/a	n/a	red
364.4338	1.0167	ITI	n/a	n/a	n/a	n/a	n/a	n/a	n/a	n/a
365.4504	0.5167	FIXCROSS	n/a	n/a	n/a	n/a	n/a	n/a	n/a	n/a
365.9671	0.5	COLOR_NAME	51	Incongruent	czerwony	red	niebieski	blue	hit	n/a
366.4394	n/a	RESPONSE	n/a	n/a	n/a	n/a	n/a	n/a	n/a	red
366.4671	1.0167	ITI	n/a	n/a	n/a	n/a	n/a	n/a	n/a	n/a
367.4838	0.5167	FIXCROSS	n/a	n/a	n/a	n/a	n/a	n/a	n/a	n/a
368.0005	0.45	COLOR_NAME	52	Incongruent	żółty	yellow	zielony	green	hit	n/a
368.4229	n/a	RESPONSE	n/a	n/a	n/a	n/a	n/a	n/a	n/a	yellow
368.4505	1.0167	ITI	n/a	n/a	n/a	n/a	n/a	n/a	n/a	n/a
369.4672	0.5167	FIXCROSS	n/a	n/a	n/a	n/a	n/a	n/a	n/a	n/a
369.9838	0.5833	COLOR_NAME	53	Neutral	niebieski	blue	Neutral	Neutral	hit	n/a
370.5344	n/a	RESPONSE	n/a	n/a	n/a	n/a	n/a	n/a	n/a	blue
370.5672	1.0167	ITI	n/a	n/a	n/a	n/a	n/a	n/a	n/a	n/a
371.5839	0.5167	FIXCROSS	n/a	n/a	n/a	n/a	n/a	n/a	n/a	n/a
372.1005	0.75	COLOR_NAME	54	Neutral	żółty	yellow	Neutral	Neutral	hit	n/a
372.8219	n/a	RESPONSE	n/a	n/a	n/a	n/a	n/a	n/a	n/a	yellow
372.8505	1.0167	ITI	n/a	n/a	n/a	n/a	n/a	n/a	n/a	n/a
373.8672	0.5167	FIXCROSS	n/a	n/a	n/a	n/a	n/a	n/a	n/a	n/a
374.3839	0.7	COLOR_NAME	55	Incongruent	czerwony	red	żółty	yellow	hit	n/a
375.0613	n/a	RESPONSE	n/a	n/a	n/a	n/a	n/a	n/a	n/a	red
375.0839	1.0167	ITI	n/a	n/a	n/a	n/a	n/a	n/a	n/a	n/a
376.1006	0.5167	FIXCROSS	n/a	n/a	n/a	n/a	n/a	n/a	n/a	n/a
376.6172	0.9	COLOR_NAME	56	Incongruent	czerwony	red	niebieski	blue	hit	n/a
377.4927	n/a	RESPONSE	n/a	n/a	n/a	n/a	n/a	n/a	n/a	red
377.5172	1.0167	ITI	n/a	n/a	n/a	n/a	n/a	n/a	n/a	n/a
378.5339	0.5167	FIXCROSS	n/a	n/a	n/a	n/a	n/a	n/a	n/a	n/a
379.0506	0.6833	COLOR_NAME	57	Neutral	niebieski	blue	Neutral	Neutral	hit	n/a
379.7002	n/a	RESPONSE	n/a	n/a	n/a	n/a	n/a	n/a	n/a	blue
379.7339	1.0167	ITI	n/a	n/a	n/a	n/a	n/a	n/a	n/a	n/a
380.7506	0.5167	FIXCROSS	n/a	n/a	n/a	n/a	n/a	n/a	n/a	n/a
381.2673	0.5	COLOR_NAME	58	Incongruent	niebieski	blue	zielony	green	incorrect	n/a
381.7477	n/a	RESPONSE	n/a	n/a	n/a	n/a	n/a	n/a	n/a	red
381.7673	1.0167	ITI	n/a	n/a	n/a	n/a	n/a	n/a	n/a	n/a
382.784	0.5167	FIXCROSS	n/a	n/a	n/a	n/a	n/a	n/a	n/a	n/a
383.3006	1.0667	COLOR_NAME	59	Neutral	niebieski	blue	Neutral	Neutral	hit	n/a
384.3391	n/a	RESPONSE	n/a	n/a	n/a	n/a	n/a	n/a	n/a	blue
384.3673	1.0167	ITI	n/a	n/a	n/a	n/a	n/a	n/a	n/a	n/a
385.384	0.5167	FIXCROSS	n/a	n/a	n/a	n/a	n/a	n/a	n/a	n/a
385.9007	0.7	COLOR_NAME	60	Neutral	zielony	green	Neutral	Neutral	incorrect	n/a
386.5785	n/a	RESPONSE	n/a	n/a	n/a	n/a	n/a	n/a	n/a	yellow
386.6007	1.0167	ITI	n/a	n/a	n/a	n/a	n/a	n/a	n/a	n/a
387.6174	0.5167	FIXCROSS	n/a	n/a	n/a	n/a	n/a	n/a	n/a	n/a
388.134	0.6333	COLOR_NAME	61	Incongruent	zielony	green	niebieski	blue	hit	n/a
388.738	n/a	RESPONSE	n/a	n/a	n/a	n/a	n/a	n/a	n/a	green
388.7674	1.0167	ITI	n/a	n/a	n/a	n/a	n/a	n/a	n/a	n/a
389.7841	0.5167	FIXCROSS	n/a	n/a	n/a	n/a	n/a	n/a	n/a	n/a
390.3007	0.55	COLOR_NAME	62	Neutral	żółty	yellow	Neutral	Neutral	hit	n/a
390.8335	n/a	RESPONSE	n/a	n/a	n/a	n/a	n/a	n/a	n/a	yellow
390.8507	1.0167	ITI	n/a	n/a	n/a	n/a	n/a	n/a	n/a	n/a
391.8674	0.5167	FIXCROSS	n/a	n/a	n/a	n/a	n/a	n/a	n/a	n/a
392.3841	0.8333	COLOR_NAME	63	Incongruent	czerwony	red	zielony	green	hit	n/a
393.1849	n/a	RESPONSE	n/a	n/a	n/a	n/a	n/a	n/a	n/a	red
393.2174	1.0167	ITI	n/a	n/a	n/a	n/a	n/a	n/a	n/a	n/a
394.2341	0.5167	FIXCROSS	n/a	n/a	n/a	n/a	n/a	n/a	n/a	n/a
394.7508	0.8833	COLOR_NAME	64	Neutral	czerwony	red	Neutral	Neutral	hit	n/a
395.6004	n/a	RESPONSE	n/a	n/a	n/a	n/a	n/a	n/a	n/a	red
395.6341	1.0167	ITI	n/a	n/a	n/a	n/a	n/a	n/a	n/a	n/a
396.6508	0.5167	FIXCROSS	n/a	n/a	n/a	n/a	n/a	n/a	n/a	n/a
397.1675	0.8167	COLOR_NAME	65	Incongruent	zielony	green	czerwony	red	hit	n/a
397.9518	n/a	RESPONSE	n/a	n/a	n/a	n/a	n/a	n/a	n/a	green
397.9842	1.0167	ITI	n/a	n/a	n/a	n/a	n/a	n/a	n/a	n/a
399.0008	0.5167	FIXCROSS	n/a	n/a	n/a	n/a	n/a	n/a	n/a	n/a
399.5175	0.4833	COLOR_NAME	66	Incongruent	zielony	green	czerwony	red	incorrect	n/a
399.9674	n/a	RESPONSE	n/a	n/a	n/a	n/a	n/a	n/a	n/a	red
400.0008	1.0167	ITI	n/a	n/a	n/a	n/a	n/a	n/a	n/a	n/a
401.0175	0.5167	FIXCROSS	n/a	n/a	n/a	n/a	n/a	n/a	n/a	n/a
401.5342	0.75	COLOR_NAME	67	Neutral	niebieski	blue	Neutral	Neutral	hit	n/a
402.2547	n/a	RESPONSE	n/a	n/a	n/a	n/a	n/a	n/a	n/a	blue
402.2842	1.0167	ITI	n/a	n/a	n/a	n/a	n/a	n/a	n/a	n/a
403.3009	0.5167	FIXCROSS	n/a	n/a	n/a	n/a	n/a	n/a	n/a	n/a
403.8176	0.9667	COLOR_NAME	68	Incongruent	czerwony	red	zielony	green	incorrect	n/a
404.7661	n/a	RESPONSE	n/a	n/a	n/a	n/a	n/a	n/a	n/a	green
404.7842	1.0167	ITI	n/a	n/a	n/a	n/a	n/a	n/a	n/a	n/a
405.8009	0.5167	FIXCROSS	n/a	n/a	n/a	n/a	n/a	n/a	n/a	n/a
406.3176	0.9833	COLOR_NAME	69	Neutral	zielony	green	Neutral	Neutral	hit	n/a
407.2775	n/a	RESPONSE	n/a	n/a	n/a	n/a	n/a	n/a	n/a	green
407.3009	1.0167	ITI	n/a	n/a	n/a	n/a	n/a	n/a	n/a	n/a
408.3176	0.5167	FIXCROSS	n/a	n/a	n/a	n/a	n/a	n/a	n/a	n/a
408.8343	0.65	COLOR_NAME	70	Neutral	żółty	yellow	Neutral	Neutral	hit	n/a
409.453	n/a	RESPONSE	n/a	n/a	n/a	n/a	n/a	n/a	n/a	yellow
409.4843	1.0167	ITI	n/a	n/a	n/a	n/a	n/a	n/a	n/a	n/a
410.501	0.5167	FIXCROSS	n/a	n/a	n/a	n/a	n/a	n/a	n/a	n/a
411.0176	0.5667	COLOR_NAME	71	Neutral	żółty	yellow	Neutral	Neutral	hit	n/a
411.5645	n/a	RESPONSE	n/a	n/a	n/a	n/a	n/a	n/a	n/a	yellow
411.5843	1.0167	ITI	n/a	n/a	n/a	n/a	n/a	n/a	n/a	n/a
412.601	0.5167	FIXCROSS	n/a	n/a	n/a	n/a	n/a	n/a	n/a	n/a
413.1177	0.4333	COLOR_NAME	72	Incongruent	żółty	yellow	czerwony	red	hit	n/a
413.532	n/a	RESPONSE	n/a	n/a	n/a	n/a	n/a	n/a	n/a	yellow
413.551	1.0333	ITI	n/a	n/a	n/a	n/a	n/a	n/a	n/a	n/a
415.7875	n/a	RESPONSE	n/a	n/a	n/a	n/a	n/a	n/a	n/a	n/a
