onset	duration	trial_type	trial_number	stroop_condition	stim_text(PL)	stim_text(eng)	stim_color(PL)	stim_color(eng)	response_type	response_color
0.0	n/a	RESPONSE	n/a	n/a	n/a	n/a	n/a	n/a	n/a	n/a
0.0624	1.0333	ITI	n/a	n/a	n/a	n/a	n/a	n/a	n/a	n/a
1.0957	0.5167	FIXCROSS	n/a	n/a	n/a	n/a	n/a	n/a	n/a	n/a
1.6124	1.35	T_INK	1	Incongruent	żółty	yellow	niebieski	blue	hit	n/a
2.9274	n/a	RESPONSE	n/a	n/a	n/a	n/a	n/a	n/a	n/a	blue
2.9624	0.5167	FEEDBACK	n/a	n/a	n/a	n/a	n/a	n/a	n/a	n/a
3.4791	1.0167	ITI	n/a	n/a	n/a	n/a	n/a	n/a	n/a	n/a
4.4958	0.5167	FIXCROSS	n/a	n/a	n/a	n/a	n/a	n/a	n/a	n/a
5.0124	0.7667	T_INK	2	Neutral	xxxxxxxxx	xxxxxxxxx	czerwony	red	hit	n/a
5.7428	n/a	RESPONSE	n/a	n/a	n/a	n/a	n/a	n/a	n/a	red
5.7791	0.5167	FEEDBACK	n/a	n/a	n/a	n/a	n/a	n/a	n/a	n/a
6.2958	1.0167	ITI	n/a	n/a	n/a	n/a	n/a	n/a	n/a	n/a
7.3125	0.5167	FIXCROSS	n/a	n/a	n/a	n/a	n/a	n/a	n/a	n/a
7.8291	0.6167	T_INK	3	Incongruent	żółty	yellow	czerwony	red	hit	n/a
8.4142	n/a	RESPONSE	n/a	n/a	n/a	n/a	n/a	n/a	n/a	red
8.4458	0.5167	FEEDBACK	n/a	n/a	n/a	n/a	n/a	n/a	n/a	n/a
8.9625	1.0167	ITI	n/a	n/a	n/a	n/a	n/a	n/a	n/a	n/a
9.9791	0.5167	FIXCROSS	n/a	n/a	n/a	n/a	n/a	n/a	n/a	n/a
10.4958	0.6333	T_INK	4	Incongruent	niebieski	blue	zielony	green	hit	n/a
11.1017	n/a	RESPONSE	n/a	n/a	n/a	n/a	n/a	n/a	n/a	green
11.1292	0.5167	FEEDBACK	n/a	n/a	n/a	n/a	n/a	n/a	n/a	n/a
11.6458	1.0167	ITI	n/a	n/a	n/a	n/a	n/a	n/a	n/a	n/a
12.6625	0.5167	FIXCROSS	n/a	n/a	n/a	n/a	n/a	n/a	n/a	n/a
13.1792	0.5	T_INK	5	Incongruent	zielony	green	czerwony	red	hit	n/a
13.6451	n/a	RESPONSE	n/a	n/a	n/a	n/a	n/a	n/a	n/a	red
13.6792	0.5167	FEEDBACK	n/a	n/a	n/a	n/a	n/a	n/a	n/a	n/a
14.1958	1.0167	ITI	n/a	n/a	n/a	n/a	n/a	n/a	n/a	n/a
15.2125	0.5167	FIXCROSS	n/a	n/a	n/a	n/a	n/a	n/a	n/a	n/a
15.7292	0.5333	T_INK	6	Incongruent	czerwony	red	żółty	yellow	hit	n/a
16.2366	n/a	RESPONSE	n/a	n/a	n/a	n/a	n/a	n/a	n/a	yellow
16.2625	0.5167	FEEDBACK	n/a	n/a	n/a	n/a	n/a	n/a	n/a	n/a
16.7792	1.0167	ITI	n/a	n/a	n/a	n/a	n/a	n/a	n/a	n/a
17.7959	0.5167	FIXCROSS	n/a	n/a	n/a	n/a	n/a	n/a	n/a	n/a
18.3125	0.5167	T_INK	7	Neutral	xxxxxxxx	xxxxxxxx	niebieski	blue	incorrect	n/a
18.796	n/a	RESPONSE	n/a	n/a	n/a	n/a	n/a	n/a	n/a	green
18.8292	0.5167	FEEDBACK	n/a	n/a	n/a	n/a	n/a	n/a	n/a	n/a
19.3459	1.0167	ITI	n/a	n/a	n/a	n/a	n/a	n/a	n/a	n/a
20.3626	0.5167	FIXCROSS	n/a	n/a	n/a	n/a	n/a	n/a	n/a	n/a
20.8792	0.7333	T_INK	8	Neutral	xxxxxxx	xxxxxxx	niebieski	blue	incorrect	n/a
21.5794	n/a	RESPONSE	n/a	n/a	n/a	n/a	n/a	n/a	n/a	red
21.6114	n/a	RESPONSE	n/a	n/a	n/a	n/a	n/a	n/a	n/a	blue
21.6126	0.5167	FEEDBACK	n/a	n/a	n/a	n/a	n/a	n/a	n/a	n/a
22.1292	1.0167	ITI	n/a	n/a	n/a	n/a	n/a	n/a	n/a	n/a
23.1459	0.5167	FIXCROSS	n/a	n/a	n/a	n/a	n/a	n/a	n/a	n/a
23.6626	0.8	T_INK	9	Neutral	xxxxx	xxxxx	zielony	green	hit	n/a
24.4428	n/a	RESPONSE	n/a	n/a	n/a	n/a	n/a	n/a	n/a	green
24.4626	0.5167	FEEDBACK	n/a	n/a	n/a	n/a	n/a	n/a	n/a	n/a
24.9793	1.0167	ITI	n/a	n/a	n/a	n/a	n/a	n/a	n/a	n/a
25.9959	0.5167	FIXCROSS	n/a	n/a	n/a	n/a	n/a	n/a	n/a	n/a
26.5126	0.5833	T_INK	10	Neutral	xxxxxxxxx	xxxxxxxxx	żółty	yellow	hit	n/a
27.0663	n/a	RESPONSE	n/a	n/a	n/a	n/a	n/a	n/a	n/a	yellow
27.0959	0.5167	FEEDBACK	n/a	n/a	n/a	n/a	n/a	n/a	n/a	n/a
27.6126	1.0167	ITI	n/a	n/a	n/a	n/a	n/a	n/a	n/a	n/a
28.6293	0.5167	FIXCROSS	n/a	n/a	n/a	n/a	n/a	n/a	n/a	n/a
29.1459	0.7	T_INK	11	Incongruent	czerwony	red	niebieski	blue	hit	n/a
29.8177	n/a	RESPONSE	n/a	n/a	n/a	n/a	n/a	n/a	n/a	blue
29.8459	0.5167	FEEDBACK	n/a	n/a	n/a	n/a	n/a	n/a	n/a	n/a
30.3626	1.0167	ITI	n/a	n/a	n/a	n/a	n/a	n/a	n/a	n/a
31.3793	0.5167	FIXCROSS	n/a	n/a	n/a	n/a	n/a	n/a	n/a	n/a
31.896	0.5667	T_INK	12	Neutral	xxxxx	xxxxx	czerwony	red	hit	n/a
32.4412	n/a	RESPONSE	n/a	n/a	n/a	n/a	n/a	n/a	n/a	red
32.4626	0.5167	FEEDBACK	n/a	n/a	n/a	n/a	n/a	n/a	n/a	n/a
32.9793	1.0333	ITI	n/a	n/a	n/a	n/a	n/a	n/a	n/a	n/a
47.59	n/a	RESPONSE	n/a	n/a	n/a	n/a	n/a	n/a	n/a	n/a
47.6461	1.0167	ITI	n/a	n/a	n/a	n/a	n/a	n/a	n/a	n/a
48.6628	0.5167	FIXCROSS	n/a	n/a	n/a	n/a	n/a	n/a	n/a	n/a
49.1794	0.6667	INK	1	Neutral	xxxxxxxx	xxxxxxxx	żółty	yellow	hit	n/a
49.8135	n/a	RESPONSE	n/a	n/a	n/a	n/a	n/a	n/a	n/a	yellow
49.8461	1.0167	ITI	n/a	n/a	n/a	n/a	n/a	n/a	n/a	n/a
50.8628	0.5167	FIXCROSS	n/a	n/a	n/a	n/a	n/a	n/a	n/a	n/a
51.3794	0.4833	INK	2	Neutral	xxxxxxx	xxxxxxx	czerwony	red	hit	n/a
51.8291	n/a	RESPONSE	n/a	n/a	n/a	n/a	n/a	n/a	n/a	red
51.8628	1.0167	ITI	n/a	n/a	n/a	n/a	n/a	n/a	n/a	n/a
52.8795	0.5167	FIXCROSS	n/a	n/a	n/a	n/a	n/a	n/a	n/a	n/a
53.3961	0.6833	INK	3	Incongruent	czerwony	red	zielony	green	hit	n/a
54.0526	n/a	RESPONSE	n/a	n/a	n/a	n/a	n/a	n/a	n/a	green
54.0795	1.0167	ITI	n/a	n/a	n/a	n/a	n/a	n/a	n/a	n/a
55.0961	0.5167	FIXCROSS	n/a	n/a	n/a	n/a	n/a	n/a	n/a	n/a
55.6128	0.3667	INK	4	Neutral	xxxxxxx	xxxxxxx	niebieski	blue	hit	n/a
55.9562	n/a	RESPONSE	n/a	n/a	n/a	n/a	n/a	n/a	n/a	blue
55.9795	1.0167	ITI	n/a	n/a	n/a	n/a	n/a	n/a	n/a	n/a
56.9961	0.5167	FIXCROSS	n/a	n/a	n/a	n/a	n/a	n/a	n/a	n/a
57.5128	0.7167	INK	5	Incongruent	żółty	yellow	zielony	green	hit	n/a
58.1957	n/a	RESPONSE	n/a	n/a	n/a	n/a	n/a	n/a	n/a	green
58.2295	1.0167	ITI	n/a	n/a	n/a	n/a	n/a	n/a	n/a	n/a
59.2462	0.5167	FIXCROSS	n/a	n/a	n/a	n/a	n/a	n/a	n/a	n/a
59.7628	0.4833	INK	6	Neutral	xxxxxxxx	xxxxxxxx	niebieski	blue	incorrect	n/a
60.2273	n/a	RESPONSE	n/a	n/a	n/a	n/a	n/a	n/a	n/a	red
60.2462	1.0167	ITI	n/a	n/a	n/a	n/a	n/a	n/a	n/a	n/a
61.2628	0.5167	FIXCROSS	n/a	n/a	n/a	n/a	n/a	n/a	n/a	n/a
61.7795	0.7	INK	7	Incongruent	niebieski	blue	żółty	yellow	hit	n/a
62.4508	n/a	RESPONSE	n/a	n/a	n/a	n/a	n/a	n/a	n/a	yellow
62.4795	1.0167	ITI	n/a	n/a	n/a	n/a	n/a	n/a	n/a	n/a
63.4962	0.5167	FIXCROSS	n/a	n/a	n/a	n/a	n/a	n/a	n/a	n/a
64.0129	0.5667	INK	8	Incongruent	czerwony	red	żółty	yellow	hit	n/a
64.5464	n/a	RESPONSE	n/a	n/a	n/a	n/a	n/a	n/a	n/a	yellow
64.5795	1.0167	ITI	n/a	n/a	n/a	n/a	n/a	n/a	n/a	n/a
65.5962	0.5167	FIXCROSS	n/a	n/a	n/a	n/a	n/a	n/a	n/a	n/a
66.1129	0.5	INK	9	Incongruent	niebieski	blue	żółty	yellow	hit	n/a
66.578	n/a	RESPONSE	n/a	n/a	n/a	n/a	n/a	n/a	n/a	yellow
66.6129	1.0167	ITI	n/a	n/a	n/a	n/a	n/a	n/a	n/a	n/a
67.6296	0.5167	FIXCROSS	n/a	n/a	n/a	n/a	n/a	n/a	n/a	n/a
68.1462	0.4333	INK	10	Neutral	xxxxxxx	xxxxxxx	żółty	yellow	hit	n/a
68.5615	n/a	RESPONSE	n/a	n/a	n/a	n/a	n/a	n/a	n/a	yellow
68.5796	1.0167	ITI	n/a	n/a	n/a	n/a	n/a	n/a	n/a	n/a
69.5962	0.5167	FIXCROSS	n/a	n/a	n/a	n/a	n/a	n/a	n/a	n/a
70.1129	0.6333	INK	11	Incongruent	żółty	yellow	zielony	green	hit	n/a
70.7211	n/a	RESPONSE	n/a	n/a	n/a	n/a	n/a	n/a	n/a	green
70.7462	1.0167	ITI	n/a	n/a	n/a	n/a	n/a	n/a	n/a	n/a
71.7629	0.5167	FIXCROSS	n/a	n/a	n/a	n/a	n/a	n/a	n/a	n/a
72.2796	0.4667	INK	12	Neutral	xxxxxxxx	xxxxxxxx	żółty	yellow	incorrect	n/a
72.7207	n/a	RESPONSE	n/a	n/a	n/a	n/a	n/a	n/a	n/a	green
72.7463	1.0167	ITI	n/a	n/a	n/a	n/a	n/a	n/a	n/a	n/a
73.7629	0.5167	FIXCROSS	n/a	n/a	n/a	n/a	n/a	n/a	n/a	n/a
74.2796	0.6833	INK	13	Neutral	xxxxxxxx	xxxxxxxx	niebieski	blue	hit	n/a
74.9442	n/a	RESPONSE	n/a	n/a	n/a	n/a	n/a	n/a	n/a	blue
74.9629	1.0167	ITI	n/a	n/a	n/a	n/a	n/a	n/a	n/a	n/a
75.9796	0.5167	FIXCROSS	n/a	n/a	n/a	n/a	n/a	n/a	n/a	n/a
76.4963	0.6	INK	14	Incongruent	zielony	green	czerwony	red	hit	n/a
77.0718	n/a	RESPONSE	n/a	n/a	n/a	n/a	n/a	n/a	n/a	red
77.0963	1.0167	ITI	n/a	n/a	n/a	n/a	n/a	n/a	n/a	n/a
78.113	0.5167	FIXCROSS	n/a	n/a	n/a	n/a	n/a	n/a	n/a	n/a
78.6296	0.6167	INK	15	Neutral	xxxxxxxxx	xxxxxxxxx	żółty	yellow	hit	n/a
79.2154	n/a	RESPONSE	n/a	n/a	n/a	n/a	n/a	n/a	n/a	yellow
79.2463	1.0167	ITI	n/a	n/a	n/a	n/a	n/a	n/a	n/a	n/a
80.263	0.5167	FIXCROSS	n/a	n/a	n/a	n/a	n/a	n/a	n/a	n/a
80.7797	0.55	INK	16	Neutral	xxxxxxx	xxxxxxx	niebieski	blue	hit	n/a
81.3109	n/a	RESPONSE	n/a	n/a	n/a	n/a	n/a	n/a	n/a	blue
81.3297	1.0167	ITI	n/a	n/a	n/a	n/a	n/a	n/a	n/a	n/a
82.3463	0.5167	FIXCROSS	n/a	n/a	n/a	n/a	n/a	n/a	n/a	n/a
82.863	0.55	INK	17	Incongruent	zielony	green	czerwony	red	hit	n/a
83.3905	n/a	RESPONSE	n/a	n/a	n/a	n/a	n/a	n/a	n/a	red
83.413	1.0167	ITI	n/a	n/a	n/a	n/a	n/a	n/a	n/a	n/a
84.4297	0.5167	FIXCROSS	n/a	n/a	n/a	n/a	n/a	n/a	n/a	n/a
84.9464	0.4833	INK	18	Neutral	xxxxxxxx	xxxxxxxx	żółty	yellow	hit	n/a
85.406	n/a	RESPONSE	n/a	n/a	n/a	n/a	n/a	n/a	n/a	yellow
85.4297	1.0167	ITI	n/a	n/a	n/a	n/a	n/a	n/a	n/a	n/a
86.4464	0.5167	FIXCROSS	n/a	n/a	n/a	n/a	n/a	n/a	n/a	n/a
86.963	0.6	INK	19	Incongruent	zielony	green	czerwony	red	incorrect	n/a
87.5336	n/a	RESPONSE	n/a	n/a	n/a	n/a	n/a	n/a	n/a	blue
87.563	1.0167	ITI	n/a	n/a	n/a	n/a	n/a	n/a	n/a	n/a
87.5656	n/a	RESPONSE	n/a	n/a	n/a	n/a	n/a	n/a	n/a	red
88.5797	0.5167	FIXCROSS	n/a	n/a	n/a	n/a	n/a	n/a	n/a	n/a
89.0964	0.5833	INK	20	Neutral	xxxxx	xxxxx	zielony	green	hit	n/a
89.6611	n/a	RESPONSE	n/a	n/a	n/a	n/a	n/a	n/a	n/a	green
89.6797	1.0167	ITI	n/a	n/a	n/a	n/a	n/a	n/a	n/a	n/a
90.6964	0.5167	FIXCROSS	n/a	n/a	n/a	n/a	n/a	n/a	n/a	n/a
91.2131	0.6	INK	21	Incongruent	zielony	green	niebieski	blue	hit	n/a
91.7887	n/a	RESPONSE	n/a	n/a	n/a	n/a	n/a	n/a	n/a	blue
91.8131	1.0167	ITI	n/a	n/a	n/a	n/a	n/a	n/a	n/a	n/a
92.8297	0.5167	FIXCROSS	n/a	n/a	n/a	n/a	n/a	n/a	n/a	n/a
93.3464	0.5	INK	22	Neutral	xxxxx	xxxxx	zielony	green	incorrect	n/a
93.8202	n/a	RESPONSE	n/a	n/a	n/a	n/a	n/a	n/a	n/a	yellow
93.8464	1.0167	ITI	n/a	n/a	n/a	n/a	n/a	n/a	n/a	n/a
94.8631	0.5167	FIXCROSS	n/a	n/a	n/a	n/a	n/a	n/a	n/a	n/a
95.3798	0.75	INK	23	Incongruent	zielony	green	niebieski	blue	hit	n/a
96.1078	n/a	RESPONSE	n/a	n/a	n/a	n/a	n/a	n/a	n/a	blue
96.1298	1.0167	ITI	n/a	n/a	n/a	n/a	n/a	n/a	n/a	n/a
97.1464	0.5167	FIXCROSS	n/a	n/a	n/a	n/a	n/a	n/a	n/a	n/a
97.6631	0.7	INK	24	Incongruent	żółty	yellow	niebieski	blue	hit	n/a
98.3313	n/a	RESPONSE	n/a	n/a	n/a	n/a	n/a	n/a	n/a	blue
98.3631	1.0167	ITI	n/a	n/a	n/a	n/a	n/a	n/a	n/a	n/a
99.3798	0.5167	FIXCROSS	n/a	n/a	n/a	n/a	n/a	n/a	n/a	n/a
99.8965	0.6167	INK	25	Neutral	xxxxxxx	xxxxxxx	żółty	yellow	hit	n/a
100.4908	n/a	RESPONSE	n/a	n/a	n/a	n/a	n/a	n/a	n/a	yellow
100.5131	1.0167	ITI	n/a	n/a	n/a	n/a	n/a	n/a	n/a	n/a
101.5298	0.5167	FIXCROSS	n/a	n/a	n/a	n/a	n/a	n/a	n/a	n/a
102.0465	0.5	INK	26	Neutral	xxxxxxx	xxxxxxx	niebieski	blue	hit	n/a
102.5224	n/a	RESPONSE	n/a	n/a	n/a	n/a	n/a	n/a	n/a	blue
102.5465	1.0167	ITI	n/a	n/a	n/a	n/a	n/a	n/a	n/a	n/a
103.5632	0.5167	FIXCROSS	n/a	n/a	n/a	n/a	n/a	n/a	n/a	n/a
104.0798	0.45	INK	27	Neutral	xxxxxxxxx	xxxxxxxxx	żółty	yellow	hit	n/a
104.506	n/a	RESPONSE	n/a	n/a	n/a	n/a	n/a	n/a	n/a	yellow
104.5298	1.0167	ITI	n/a	n/a	n/a	n/a	n/a	n/a	n/a	n/a
105.5465	0.5167	FIXCROSS	n/a	n/a	n/a	n/a	n/a	n/a	n/a	n/a
106.0632	0.5667	INK	28	Incongruent	żółty	yellow	czerwony	red	hit	n/a
106.6016	n/a	RESPONSE	n/a	n/a	n/a	n/a	n/a	n/a	n/a	red
106.6298	1.0167	ITI	n/a	n/a	n/a	n/a	n/a	n/a	n/a	n/a
107.6465	0.5167	FIXCROSS	n/a	n/a	n/a	n/a	n/a	n/a	n/a	n/a
108.1632	0.5667	INK	29	Neutral	xxxxxxxxx	xxxxxxxxx	zielony	green	hit	n/a
108.6971	n/a	RESPONSE	n/a	n/a	n/a	n/a	n/a	n/a	n/a	green
108.7299	1.0167	ITI	n/a	n/a	n/a	n/a	n/a	n/a	n/a	n/a
109.7465	0.5167	FIXCROSS	n/a	n/a	n/a	n/a	n/a	n/a	n/a	n/a
110.2632	0.6	INK	30	Neutral	xxxxx	xxxxx	zielony	green	hit	n/a
110.8407	n/a	RESPONSE	n/a	n/a	n/a	n/a	n/a	n/a	n/a	green
110.8632	1.0167	ITI	n/a	n/a	n/a	n/a	n/a	n/a	n/a	n/a
111.8799	0.5167	FIXCROSS	n/a	n/a	n/a	n/a	n/a	n/a	n/a	n/a
112.3965	0.5	INK	31	Neutral	xxxxxxxx	xxxxxxxx	zielony	green	hit	n/a
112.8723	n/a	RESPONSE	n/a	n/a	n/a	n/a	n/a	n/a	n/a	green
112.8965	1.0167	ITI	n/a	n/a	n/a	n/a	n/a	n/a	n/a	n/a
113.9132	0.5167	FIXCROSS	n/a	n/a	n/a	n/a	n/a	n/a	n/a	n/a
114.4299	0.4833	INK	32	Neutral	xxxxx	xxxxx	niebieski	blue	hit	n/a
114.8878	n/a	RESPONSE	n/a	n/a	n/a	n/a	n/a	n/a	n/a	blue
114.9132	1.0167	ITI	n/a	n/a	n/a	n/a	n/a	n/a	n/a	n/a
115.9299	0.5167	FIXCROSS	n/a	n/a	n/a	n/a	n/a	n/a	n/a	n/a
116.4466	0.4333	INK	33	Incongruent	czerwony	red	niebieski	blue	hit	n/a
116.8554	n/a	RESPONSE	n/a	n/a	n/a	n/a	n/a	n/a	n/a	blue
116.8799	1.0167	ITI	n/a	n/a	n/a	n/a	n/a	n/a	n/a	n/a
117.8966	0.5167	FIXCROSS	n/a	n/a	n/a	n/a	n/a	n/a	n/a	n/a
118.4133	0.4333	INK	34	Neutral	xxxxxxxxx	xxxxxxxxx	żółty	yellow	hit	n/a
118.823	n/a	RESPONSE	n/a	n/a	n/a	n/a	n/a	n/a	n/a	yellow
118.8466	1.0167	ITI	n/a	n/a	n/a	n/a	n/a	n/a	n/a	n/a
119.8633	0.5167	FIXCROSS	n/a	n/a	n/a	n/a	n/a	n/a	n/a	n/a
120.3799	0.6	INK	35	Incongruent	zielony	green	żółty	yellow	hit	n/a
120.9505	n/a	RESPONSE	n/a	n/a	n/a	n/a	n/a	n/a	n/a	yellow
120.9799	1.0167	ITI	n/a	n/a	n/a	n/a	n/a	n/a	n/a	n/a
121.9966	0.5167	FIXCROSS	n/a	n/a	n/a	n/a	n/a	n/a	n/a	n/a
122.5133	0.5167	INK	36	Incongruent	żółty	yellow	czerwony	red	hit	n/a
122.9981	n/a	RESPONSE	n/a	n/a	n/a	n/a	n/a	n/a	n/a	red
123.0299	1.0167	ITI	n/a	n/a	n/a	n/a	n/a	n/a	n/a	n/a
124.0466	0.5167	FIXCROSS	n/a	n/a	n/a	n/a	n/a	n/a	n/a	n/a
124.5633	0.4667	INK	37	Incongruent	niebieski	blue	zielony	green	hit	n/a
124.9977	n/a	RESPONSE	n/a	n/a	n/a	n/a	n/a	n/a	n/a	green
125.03	1.0167	ITI	n/a	n/a	n/a	n/a	n/a	n/a	n/a	n/a
126.0466	0.5167	FIXCROSS	n/a	n/a	n/a	n/a	n/a	n/a	n/a	n/a
126.5633	0.5167	INK	38	Incongruent	niebieski	blue	czerwony	red	hit	n/a
127.0453	n/a	RESPONSE	n/a	n/a	n/a	n/a	n/a	n/a	n/a	red
127.08	1.0167	ITI	n/a	n/a	n/a	n/a	n/a	n/a	n/a	n/a
128.0967	0.5167	FIXCROSS	n/a	n/a	n/a	n/a	n/a	n/a	n/a	n/a
128.6133	0.5167	INK	39	Neutral	xxxxx	xxxxx	niebieski	blue	hit	n/a
129.1088	n/a	RESPONSE	n/a	n/a	n/a	n/a	n/a	n/a	n/a	blue
129.13	1.0167	ITI	n/a	n/a	n/a	n/a	n/a	n/a	n/a	n/a
130.1467	0.5167	FIXCROSS	n/a	n/a	n/a	n/a	n/a	n/a	n/a	n/a
130.6633	0.45	INK	40	Neutral	xxxxxxxx	xxxxxxxx	zielony	green	hit	n/a
131.0924	n/a	RESPONSE	n/a	n/a	n/a	n/a	n/a	n/a	n/a	green
131.1133	1.0167	ITI	n/a	n/a	n/a	n/a	n/a	n/a	n/a	n/a
132.13	0.5167	FIXCROSS	n/a	n/a	n/a	n/a	n/a	n/a	n/a	n/a
132.6467	0.5	INK	41	Incongruent	czerwony	red	zielony	green	hit	n/a
133.124	n/a	RESPONSE	n/a	n/a	n/a	n/a	n/a	n/a	n/a	green
133.1467	1.0167	ITI	n/a	n/a	n/a	n/a	n/a	n/a	n/a	n/a
134.1634	0.5167	FIXCROSS	n/a	n/a	n/a	n/a	n/a	n/a	n/a	n/a
134.68	0.4333	INK	42	Incongruent	żółty	yellow	zielony	green	hit	n/a
135.0916	n/a	RESPONSE	n/a	n/a	n/a	n/a	n/a	n/a	n/a	green
135.1134	1.0167	ITI	n/a	n/a	n/a	n/a	n/a	n/a	n/a	n/a
136.1301	0.5167	FIXCROSS	n/a	n/a	n/a	n/a	n/a	n/a	n/a	n/a
136.6467	0.4	INK	43	Neutral	xxxxxxxxx	xxxxxxxxx	zielony	green	hit	n/a
137.0272	n/a	RESPONSE	n/a	n/a	n/a	n/a	n/a	n/a	n/a	green
137.0467	1.0167	ITI	n/a	n/a	n/a	n/a	n/a	n/a	n/a	n/a
138.0634	0.5167	FIXCROSS	n/a	n/a	n/a	n/a	n/a	n/a	n/a	n/a
138.5801	0.5167	INK	44	Incongruent	niebieski	blue	żółty	yellow	hit	n/a
139.0747	n/a	RESPONSE	n/a	n/a	n/a	n/a	n/a	n/a	n/a	yellow
139.0967	1.0167	ITI	n/a	n/a	n/a	n/a	n/a	n/a	n/a	n/a
140.1134	0.5167	FIXCROSS	n/a	n/a	n/a	n/a	n/a	n/a	n/a	n/a
140.6301	0.4	INK	45	Neutral	xxxxxxxxx	xxxxxxxxx	czerwony	red	hit	n/a
141.0103	n/a	RESPONSE	n/a	n/a	n/a	n/a	n/a	n/a	n/a	red
141.0301	1.0167	ITI	n/a	n/a	n/a	n/a	n/a	n/a	n/a	n/a
142.0468	0.5167	FIXCROSS	n/a	n/a	n/a	n/a	n/a	n/a	n/a	n/a
142.5634	0.3833	INK	46	Incongruent	żółty	yellow	niebieski	blue	hit	n/a
142.914	n/a	RESPONSE	n/a	n/a	n/a	n/a	n/a	n/a	n/a	blue
142.9468	1.0167	ITI	n/a	n/a	n/a	n/a	n/a	n/a	n/a	n/a
143.9634	0.5167	FIXCROSS	n/a	n/a	n/a	n/a	n/a	n/a	n/a	n/a
144.4801	0.4667	INK	47	Incongruent	żółty	yellow	czerwony	red	incorrect	n/a
144.9135	n/a	RESPONSE	n/a	n/a	n/a	n/a	n/a	n/a	n/a	green
144.9468	1.0167	ITI	n/a	n/a	n/a	n/a	n/a	n/a	n/a	n/a
145.9634	0.5167	FIXCROSS	n/a	n/a	n/a	n/a	n/a	n/a	n/a	n/a
146.4801	0.65	INK	48	Neutral	xxxxxxxx	xxxxxxxx	niebieski	blue	hit	n/a
147.105	n/a	RESPONSE	n/a	n/a	n/a	n/a	n/a	n/a	n/a	blue
147.1301	1.0167	ITI	n/a	n/a	n/a	n/a	n/a	n/a	n/a	n/a
148.1468	0.5167	FIXCROSS	n/a	n/a	n/a	n/a	n/a	n/a	n/a	n/a
148.6635	0.4833	INK	49	Neutral	xxxxxxxxx	xxxxxxxxx	czerwony	red	hit	n/a
149.1206	n/a	RESPONSE	n/a	n/a	n/a	n/a	n/a	n/a	n/a	red
149.1468	1.0167	ITI	n/a	n/a	n/a	n/a	n/a	n/a	n/a	n/a
150.1635	0.5167	FIXCROSS	n/a	n/a	n/a	n/a	n/a	n/a	n/a	n/a
150.6801	0.6833	INK	50	Incongruent	zielony	green	żółty	yellow	hit	n/a
151.3442	n/a	RESPONSE	n/a	n/a	n/a	n/a	n/a	n/a	n/a	yellow
151.3635	1.0167	ITI	n/a	n/a	n/a	n/a	n/a	n/a	n/a	n/a
152.3802	0.5167	FIXCROSS	n/a	n/a	n/a	n/a	n/a	n/a	n/a	n/a
152.8968	0.5	INK	51	Incongruent	żółty	yellow	niebieski	blue	hit	n/a
153.3757	n/a	RESPONSE	n/a	n/a	n/a	n/a	n/a	n/a	n/a	blue
153.3968	1.0167	ITI	n/a	n/a	n/a	n/a	n/a	n/a	n/a	n/a
154.4135	0.5167	FIXCROSS	n/a	n/a	n/a	n/a	n/a	n/a	n/a	n/a
154.9302	0.7667	INK	52	Incongruent	niebieski	blue	zielony	green	hit	n/a
155.6633	n/a	RESPONSE	n/a	n/a	n/a	n/a	n/a	n/a	n/a	green
155.6968	1.0167	ITI	n/a	n/a	n/a	n/a	n/a	n/a	n/a	n/a
156.7135	0.5167	FIXCROSS	n/a	n/a	n/a	n/a	n/a	n/a	n/a	n/a
157.2302	0.4667	INK	53	Incongruent	czerwony	red	zielony	green	hit	n/a
157.6788	n/a	RESPONSE	n/a	n/a	n/a	n/a	n/a	n/a	n/a	green
157.6969	1.0167	ITI	n/a	n/a	n/a	n/a	n/a	n/a	n/a	n/a
158.7135	0.5167	FIXCROSS	n/a	n/a	n/a	n/a	n/a	n/a	n/a	n/a
159.2302	0.3833	INK	54	Incongruent	niebieski	blue	czerwony	red	hit	n/a
159.5824	n/a	RESPONSE	n/a	n/a	n/a	n/a	n/a	n/a	n/a	red
159.6135	1.0167	ITI	n/a	n/a	n/a	n/a	n/a	n/a	n/a	n/a
160.6302	0.5167	FIXCROSS	n/a	n/a	n/a	n/a	n/a	n/a	n/a	n/a
161.1469	0.4	INK	55	Neutral	xxxxx	xxxxx	czerwony	red	hit	n/a
161.518	n/a	RESPONSE	n/a	n/a	n/a	n/a	n/a	n/a	n/a	red
161.5469	1.0167	ITI	n/a	n/a	n/a	n/a	n/a	n/a	n/a	n/a
162.5636	0.5167	FIXCROSS	n/a	n/a	n/a	n/a	n/a	n/a	n/a	n/a
163.0802	0.6167	INK	56	Incongruent	zielony	green	żółty	yellow	hit	n/a
163.6776	n/a	RESPONSE	n/a	n/a	n/a	n/a	n/a	n/a	n/a	yellow
163.6969	1.0167	ITI	n/a	n/a	n/a	n/a	n/a	n/a	n/a	n/a
164.7136	0.5167	FIXCROSS	n/a	n/a	n/a	n/a	n/a	n/a	n/a	n/a
165.2302	0.55	INK	57	Incongruent	niebieski	blue	czerwony	red	hit	n/a
165.7572	n/a	RESPONSE	n/a	n/a	n/a	n/a	n/a	n/a	n/a	red
165.7803	1.0167	ITI	n/a	n/a	n/a	n/a	n/a	n/a	n/a	n/a
166.7969	0.5167	FIXCROSS	n/a	n/a	n/a	n/a	n/a	n/a	n/a	n/a
167.3136	0.6167	INK	58	Neutral	xxxxxxx	xxxxxxx	żółty	yellow	hit	n/a
167.9007	n/a	RESPONSE	n/a	n/a	n/a	n/a	n/a	n/a	n/a	yellow
167.9303	1.0167	ITI	n/a	n/a	n/a	n/a	n/a	n/a	n/a	n/a
168.9469	0.5167	FIXCROSS	n/a	n/a	n/a	n/a	n/a	n/a	n/a	n/a
169.4636	0.5167	INK	59	Incongruent	zielony	green	niebieski	blue	hit	n/a
169.9483	n/a	RESPONSE	n/a	n/a	n/a	n/a	n/a	n/a	n/a	blue
169.9803	1.0167	ITI	n/a	n/a	n/a	n/a	n/a	n/a	n/a	n/a
170.997	0.5167	FIXCROSS	n/a	n/a	n/a	n/a	n/a	n/a	n/a	n/a
171.5136	0.5333	INK	60	Incongruent	czerwony	red	żółty	yellow	hit	n/a
172.0278	n/a	RESPONSE	n/a	n/a	n/a	n/a	n/a	n/a	n/a	yellow
172.047	1.0167	ITI	n/a	n/a	n/a	n/a	n/a	n/a	n/a	n/a
173.0636	0.5167	FIXCROSS	n/a	n/a	n/a	n/a	n/a	n/a	n/a	n/a
173.5803	0.6667	INK	61	Neutral	xxxxxxxxx	xxxxxxxxx	zielony	green	hit	n/a
174.2193	n/a	RESPONSE	n/a	n/a	n/a	n/a	n/a	n/a	n/a	green
174.247	1.0167	ITI	n/a	n/a	n/a	n/a	n/a	n/a	n/a	n/a
175.2637	0.5167	FIXCROSS	n/a	n/a	n/a	n/a	n/a	n/a	n/a	n/a
175.7803	0.6	INK	62	Neutral	xxxxxxx	xxxxxxx	czerwony	red	hit	n/a
176.3469	n/a	RESPONSE	n/a	n/a	n/a	n/a	n/a	n/a	n/a	red
176.3803	1.0167	ITI	n/a	n/a	n/a	n/a	n/a	n/a	n/a	n/a
177.397	0.5167	FIXCROSS	n/a	n/a	n/a	n/a	n/a	n/a	n/a	n/a
177.9137	0.4833	INK	63	Incongruent	niebieski	blue	zielony	green	incorrect	n/a
178.3785	n/a	RESPONSE	n/a	n/a	n/a	n/a	n/a	n/a	n/a	yellow
178.397	1.0167	ITI	n/a	n/a	n/a	n/a	n/a	n/a	n/a	n/a
179.4137	0.5167	FIXCROSS	n/a	n/a	n/a	n/a	n/a	n/a	n/a	n/a
179.9304	0.5	INK	64	Neutral	xxxxxxxx	xxxxxxxx	zielony	green	hit	n/a
180.4101	n/a	RESPONSE	n/a	n/a	n/a	n/a	n/a	n/a	n/a	green
180.4304	1.0167	ITI	n/a	n/a	n/a	n/a	n/a	n/a	n/a	n/a
181.447	0.5167	FIXCROSS	n/a	n/a	n/a	n/a	n/a	n/a	n/a	n/a
181.9637	0.5	INK	65	Incongruent	czerwony	red	żółty	yellow	hit	n/a
182.4416	n/a	RESPONSE	n/a	n/a	n/a	n/a	n/a	n/a	n/a	yellow
182.4637	1.0167	ITI	n/a	n/a	n/a	n/a	n/a	n/a	n/a	n/a
183.4804	0.5167	FIXCROSS	n/a	n/a	n/a	n/a	n/a	n/a	n/a	n/a
183.9971	0.75	INK	66	Neutral	xxxxxxxxx	xxxxxxxxx	czerwony	red	hit	n/a
184.7292	n/a	RESPONSE	n/a	n/a	n/a	n/a	n/a	n/a	n/a	red
184.7471	1.0167	ITI	n/a	n/a	n/a	n/a	n/a	n/a	n/a	n/a
185.7637	0.5167	FIXCROSS	n/a	n/a	n/a	n/a	n/a	n/a	n/a	n/a
186.2804	0.4333	INK	67	Neutral	xxxxx	xxxxx	czerwony	red	hit	n/a
186.6807	n/a	RESPONSE	n/a	n/a	n/a	n/a	n/a	n/a	n/a	red
186.7137	1.0167	ITI	n/a	n/a	n/a	n/a	n/a	n/a	n/a	n/a
187.7304	0.5167	FIXCROSS	n/a	n/a	n/a	n/a	n/a	n/a	n/a	n/a
188.2471	0.4667	INK	68	Neutral	xxxxx	xxxxx	niebieski	blue	hit	n/a
188.6963	n/a	RESPONSE	n/a	n/a	n/a	n/a	n/a	n/a	n/a	blue
188.7138	1.0167	ITI	n/a	n/a	n/a	n/a	n/a	n/a	n/a	n/a
189.7304	0.5167	FIXCROSS	n/a	n/a	n/a	n/a	n/a	n/a	n/a	n/a
190.2471	0.5167	INK	69	Neutral	xxxxxxx	xxxxxxx	czerwony	red	hit	n/a
190.7439	n/a	RESPONSE	n/a	n/a	n/a	n/a	n/a	n/a	n/a	red
190.7638	1.0167	ITI	n/a	n/a	n/a	n/a	n/a	n/a	n/a	n/a
191.7804	0.5167	FIXCROSS	n/a	n/a	n/a	n/a	n/a	n/a	n/a	n/a
192.2971	0.6	INK	70	Incongruent	czerwony	red	niebieski	blue	hit	n/a
192.8714	n/a	RESPONSE	n/a	n/a	n/a	n/a	n/a	n/a	n/a	blue
192.8971	1.0167	ITI	n/a	n/a	n/a	n/a	n/a	n/a	n/a	n/a
193.9138	0.5167	FIXCROSS	n/a	n/a	n/a	n/a	n/a	n/a	n/a	n/a
194.4305	0.4667	INK	71	Neutral	xxxxx	xxxxx	czerwony	red	hit	n/a
194.871	n/a	RESPONSE	n/a	n/a	n/a	n/a	n/a	n/a	n/a	red
194.8971	1.0167	ITI	n/a	n/a	n/a	n/a	n/a	n/a	n/a	n/a
195.9138	0.5167	FIXCROSS	n/a	n/a	n/a	n/a	n/a	n/a	n/a	n/a
196.4305	0.6	INK	72	Incongruent	czerwony	red	niebieski	blue	hit	n/a
196.9986	n/a	RESPONSE	n/a	n/a	n/a	n/a	n/a	n/a	n/a	blue
197.0305	1.0833	ITI	n/a	n/a	n/a	n/a	n/a	n/a	n/a	n/a
240.1255	n/a	RESPONSE	n/a	n/a	n/a	n/a	n/a	n/a	n/a	n/a
240.1974	1.0167	ITI	n/a	n/a	n/a	n/a	n/a	n/a	n/a	n/a
241.2141	0.5167	FIXCROSS	n/a	n/a	n/a	n/a	n/a	n/a	n/a	n/a
241.7308	0.8833	T_COLOR_NAME	1	Neutral	żółty	yellow	Neutral	Neutral	hit	n/a
242.589	n/a	RESPONSE	n/a	n/a	n/a	n/a	n/a	n/a	n/a	yellow
242.6141	0.5167	FEEDBACK	n/a	n/a	n/a	n/a	n/a	n/a	n/a	n/a
243.1308	1.0167	ITI	n/a	n/a	n/a	n/a	n/a	n/a	n/a	n/a
244.1475	0.5167	FIXCROSS	n/a	n/a	n/a	n/a	n/a	n/a	n/a	n/a
244.6641	0.7167	T_COLOR_NAME	2	Neutral	niebieski	blue	Neutral	Neutral	hit	n/a
245.3564	n/a	RESPONSE	n/a	n/a	n/a	n/a	n/a	n/a	n/a	blue
245.3808	0.5167	FEEDBACK	n/a	n/a	n/a	n/a	n/a	n/a	n/a	n/a
245.8975	1.0167	ITI	n/a	n/a	n/a	n/a	n/a	n/a	n/a	n/a
246.9141	0.5167	FIXCROSS	n/a	n/a	n/a	n/a	n/a	n/a	n/a	n/a
247.4308	0.6167	T_COLOR_NAME	3	Neutral	czerwony	red	Neutral	Neutral	hit	n/a
248.0118	n/a	RESPONSE	n/a	n/a	n/a	n/a	n/a	n/a	n/a	red
248.0475	0.5167	FEEDBACK	n/a	n/a	n/a	n/a	n/a	n/a	n/a	n/a
248.5642	1.0167	ITI	n/a	n/a	n/a	n/a	n/a	n/a	n/a	n/a
249.5808	0.5167	FIXCROSS	n/a	n/a	n/a	n/a	n/a	n/a	n/a	n/a
250.0975	0.5667	T_COLOR_NAME	4	Incongruent	czerwony	red	żółty	yellow	hit	n/a
250.6353	n/a	RESPONSE	n/a	n/a	n/a	n/a	n/a	n/a	n/a	red
250.6642	0.5167	FEEDBACK	n/a	n/a	n/a	n/a	n/a	n/a	n/a	n/a
251.1809	1.0167	ITI	n/a	n/a	n/a	n/a	n/a	n/a	n/a	n/a
252.1975	0.5167	FIXCROSS	n/a	n/a	n/a	n/a	n/a	n/a	n/a	n/a
252.7142	0.4833	T_COLOR_NAME	5	Neutral	niebieski	blue	Neutral	Neutral	hit	n/a
253.1628	n/a	RESPONSE	n/a	n/a	n/a	n/a	n/a	n/a	n/a	blue
253.1975	0.5167	FEEDBACK	n/a	n/a	n/a	n/a	n/a	n/a	n/a	n/a
253.7142	1.0167	ITI	n/a	n/a	n/a	n/a	n/a	n/a	n/a	n/a
254.7309	0.5167	FIXCROSS	n/a	n/a	n/a	n/a	n/a	n/a	n/a	n/a
255.2475	0.5333	T_COLOR_NAME	6	Incongruent	żółty	yellow	czerwony	red	incorrect	n/a
255.7542	n/a	RESPONSE	n/a	n/a	n/a	n/a	n/a	n/a	n/a	red
255.7809	0.5167	FEEDBACK	n/a	n/a	n/a	n/a	n/a	n/a	n/a	n/a
256.2975	1.0167	ITI	n/a	n/a	n/a	n/a	n/a	n/a	n/a	n/a
257.3142	0.5167	FIXCROSS	n/a	n/a	n/a	n/a	n/a	n/a	n/a	n/a
257.8309	0.8	T_COLOR_NAME	7	Neutral	zielony	green	Neutral	Neutral	incorrect	n/a
258.6016	n/a	RESPONSE	n/a	n/a	n/a	n/a	n/a	n/a	n/a	blue
258.6309	0.5167	FEEDBACK	n/a	n/a	n/a	n/a	n/a	n/a	n/a	n/a
258.6656	n/a	RESPONSE	n/a	n/a	n/a	n/a	n/a	n/a	n/a	green
259.1476	1.0167	ITI	n/a	n/a	n/a	n/a	n/a	n/a	n/a	n/a
260.1642	0.5167	FIXCROSS	n/a	n/a	n/a	n/a	n/a	n/a	n/a	n/a
260.6809	1.0833	T_COLOR_NAME	8	Incongruent	czerwony	red	niebieski	blue	hit	n/a
261.737	n/a	RESPONSE	n/a	n/a	n/a	n/a	n/a	n/a	n/a	red
261.7643	0.5167	FEEDBACK	n/a	n/a	n/a	n/a	n/a	n/a	n/a	n/a
262.2809	1.0167	ITI	n/a	n/a	n/a	n/a	n/a	n/a	n/a	n/a
263.2976	0.5167	FIXCROSS	n/a	n/a	n/a	n/a	n/a	n/a	n/a	n/a
263.8143	0.7	T_COLOR_NAME	9	Incongruent	niebieski	blue	zielony	green	hit	n/a
264.4884	n/a	RESPONSE	n/a	n/a	n/a	n/a	n/a	n/a	n/a	blue
264.5143	0.5167	FEEDBACK	n/a	n/a	n/a	n/a	n/a	n/a	n/a	n/a
265.0309	1.0167	ITI	n/a	n/a	n/a	n/a	n/a	n/a	n/a	n/a
266.0476	0.5167	FIXCROSS	n/a	n/a	n/a	n/a	n/a	n/a	n/a	n/a
266.5643	0.6	T_COLOR_NAME	10	Incongruent	żółty	yellow	niebieski	blue	hit	n/a
267.1438	n/a	RESPONSE	n/a	n/a	n/a	n/a	n/a	n/a	n/a	yellow
267.1643	0.5167	FEEDBACK	n/a	n/a	n/a	n/a	n/a	n/a	n/a	n/a
267.681	1.0167	ITI	n/a	n/a	n/a	n/a	n/a	n/a	n/a	n/a
268.6976	0.5167	FIXCROSS	n/a	n/a	n/a	n/a	n/a	n/a	n/a	n/a
269.2143	0.4833	T_COLOR_NAME	11	Neutral	żółty	yellow	Neutral	Neutral	hit	n/a
269.6713	n/a	RESPONSE	n/a	n/a	n/a	n/a	n/a	n/a	n/a	yellow
269.6976	0.5167	FEEDBACK	n/a	n/a	n/a	n/a	n/a	n/a	n/a	n/a
270.2143	1.0167	ITI	n/a	n/a	n/a	n/a	n/a	n/a	n/a	n/a
271.231	0.5167	FIXCROSS	n/a	n/a	n/a	n/a	n/a	n/a	n/a	n/a
271.7477	0.95	T_COLOR_NAME	12	Incongruent	zielony	green	czerwony	red	hit	n/a
272.6787	n/a	RESPONSE	n/a	n/a	n/a	n/a	n/a	n/a	n/a	green
272.6977	0.5167	FEEDBACK	n/a	n/a	n/a	n/a	n/a	n/a	n/a	n/a
273.2143	1.0333	ITI	n/a	n/a	n/a	n/a	n/a	n/a	n/a	n/a
276.8058	n/a	RESPONSE	n/a	n/a	n/a	n/a	n/a	n/a	n/a	n/a
276.8643	1.0167	ITI	n/a	n/a	n/a	n/a	n/a	n/a	n/a	n/a
277.881	0.5167	FIXCROSS	n/a	n/a	n/a	n/a	n/a	n/a	n/a	n/a
278.3977	0.8167	COLOR_NAME	1	Incongruent	niebieski	blue	zielony	green	incorrect	n/a
279.1893	n/a	RESPONSE	n/a	n/a	n/a	n/a	n/a	n/a	n/a	green
279.2144	1.0167	ITI	n/a	n/a	n/a	n/a	n/a	n/a	n/a	n/a
280.2311	0.5167	FIXCROSS	n/a	n/a	n/a	n/a	n/a	n/a	n/a	n/a
280.7477	1.45	COLOR_NAME	2	Incongruent	zielony	green	czerwony	red	hit	n/a
282.1647	n/a	RESPONSE	n/a	n/a	n/a	n/a	n/a	n/a	n/a	green
282.1977	1.0167	ITI	n/a	n/a	n/a	n/a	n/a	n/a	n/a	n/a
283.2144	0.5167	FIXCROSS	n/a	n/a	n/a	n/a	n/a	n/a	n/a	n/a
283.7311	0.7	COLOR_NAME	3	Neutral	czerwony	red	Neutral	Neutral	hit	n/a
284.4042	n/a	RESPONSE	n/a	n/a	n/a	n/a	n/a	n/a	n/a	red
284.4311	1.0167	ITI	n/a	n/a	n/a	n/a	n/a	n/a	n/a	n/a
285.4477	0.5167	FIXCROSS	n/a	n/a	n/a	n/a	n/a	n/a	n/a	n/a
285.9644	0.6167	COLOR_NAME	4	Incongruent	czerwony	red	niebieski	blue	hit	n/a
286.5637	n/a	RESPONSE	n/a	n/a	n/a	n/a	n/a	n/a	n/a	red
286.5811	1.0167	ITI	n/a	n/a	n/a	n/a	n/a	n/a	n/a	n/a
287.5978	0.5167	FIXCROSS	n/a	n/a	n/a	n/a	n/a	n/a	n/a	n/a
288.1144	0.8	COLOR_NAME	5	Incongruent	niebieski	blue	żółty	yellow	hit	n/a
288.8832	n/a	RESPONSE	n/a	n/a	n/a	n/a	n/a	n/a	n/a	blue
288.9144	1.0167	ITI	n/a	n/a	n/a	n/a	n/a	n/a	n/a	n/a
289.9311	0.5167	FIXCROSS	n/a	n/a	n/a	n/a	n/a	n/a	n/a	n/a
290.4478	0.5333	COLOR_NAME	6	Neutral	zielony	green	Neutral	Neutral	hit	n/a
290.9628	n/a	RESPONSE	n/a	n/a	n/a	n/a	n/a	n/a	n/a	green
290.9811	1.0167	ITI	n/a	n/a	n/a	n/a	n/a	n/a	n/a	n/a
291.9978	0.5167	FIXCROSS	n/a	n/a	n/a	n/a	n/a	n/a	n/a	n/a
292.5145	0.9167	COLOR_NAME	7	Incongruent	czerwony	red	niebieski	blue	hit	n/a
293.4103	n/a	RESPONSE	n/a	n/a	n/a	n/a	n/a	n/a	n/a	red
293.4311	1.0167	ITI	n/a	n/a	n/a	n/a	n/a	n/a	n/a	n/a
294.4478	0.5167	FIXCROSS	n/a	n/a	n/a	n/a	n/a	n/a	n/a	n/a
294.9645	0.8667	COLOR_NAME	8	Neutral	zielony	green	Neutral	Neutral	hit	n/a
295.8098	n/a	RESPONSE	n/a	n/a	n/a	n/a	n/a	n/a	n/a	green
295.8312	1.0167	ITI	n/a	n/a	n/a	n/a	n/a	n/a	n/a	n/a
296.8478	0.5167	FIXCROSS	n/a	n/a	n/a	n/a	n/a	n/a	n/a	n/a
297.3645	0.9333	COLOR_NAME	9	Incongruent	zielony	green	żółty	yellow	hit	n/a
298.2732	n/a	RESPONSE	n/a	n/a	n/a	n/a	n/a	n/a	n/a	green
298.2978	1.0167	ITI	n/a	n/a	n/a	n/a	n/a	n/a	n/a	n/a
299.3145	0.5167	FIXCROSS	n/a	n/a	n/a	n/a	n/a	n/a	n/a	n/a
299.8312	0.6667	COLOR_NAME	10	Incongruent	czerwony	red	żółty	yellow	hit	n/a
300.4648	n/a	RESPONSE	n/a	n/a	n/a	n/a	n/a	n/a	n/a	red
300.4978	1.0167	ITI	n/a	n/a	n/a	n/a	n/a	n/a	n/a	n/a
301.5145	0.5167	FIXCROSS	n/a	n/a	n/a	n/a	n/a	n/a	n/a	n/a
302.0312	0.7167	COLOR_NAME	11	Neutral	żółty	yellow	Neutral	Neutral	hit	n/a
302.7203	n/a	RESPONSE	n/a	n/a	n/a	n/a	n/a	n/a	n/a	yellow
302.7479	1.0167	ITI	n/a	n/a	n/a	n/a	n/a	n/a	n/a	n/a
303.7645	0.5167	FIXCROSS	n/a	n/a	n/a	n/a	n/a	n/a	n/a	n/a
304.2812	0.8833	COLOR_NAME	12	Incongruent	niebieski	blue	żółty	yellow	hit	n/a
305.1358	n/a	RESPONSE	n/a	n/a	n/a	n/a	n/a	n/a	n/a	blue
305.1645	1.0167	ITI	n/a	n/a	n/a	n/a	n/a	n/a	n/a	n/a
306.1812	0.5167	FIXCROSS	n/a	n/a	n/a	n/a	n/a	n/a	n/a	n/a
306.6979	0.6333	COLOR_NAME	13	Neutral	zielony	green	Neutral	Neutral	hit	n/a
307.3114	n/a	RESPONSE	n/a	n/a	n/a	n/a	n/a	n/a	n/a	green
307.3312	1.0167	ITI	n/a	n/a	n/a	n/a	n/a	n/a	n/a	n/a
308.3479	0.5167	FIXCROSS	n/a	n/a	n/a	n/a	n/a	n/a	n/a	n/a
308.8646	0.8333	COLOR_NAME	14	Incongruent	zielony	green	czerwony	red	hit	n/a
309.6789	n/a	RESPONSE	n/a	n/a	n/a	n/a	n/a	n/a	n/a	green
309.6979	1.0167	ITI	n/a	n/a	n/a	n/a	n/a	n/a	n/a	n/a
310.7146	0.5167	FIXCROSS	n/a	n/a	n/a	n/a	n/a	n/a	n/a	n/a
311.2313	0.5833	COLOR_NAME	15	Incongruent	zielony	green	niebieski	blue	hit	n/a
311.7904	n/a	RESPONSE	n/a	n/a	n/a	n/a	n/a	n/a	n/a	green
311.8146	1.0167	ITI	n/a	n/a	n/a	n/a	n/a	n/a	n/a	n/a
312.8313	0.5167	FIXCROSS	n/a	n/a	n/a	n/a	n/a	n/a	n/a	n/a
313.3479	0.6833	COLOR_NAME	16	Neutral	żółty	yellow	Neutral	Neutral	hit	n/a
313.998	n/a	RESPONSE	n/a	n/a	n/a	n/a	n/a	n/a	n/a	yellow
314.0313	1.0167	ITI	n/a	n/a	n/a	n/a	n/a	n/a	n/a	n/a
315.048	0.5167	FIXCROSS	n/a	n/a	n/a	n/a	n/a	n/a	n/a	n/a
315.5646	0.7	COLOR_NAME	17	Neutral	niebieski	blue	Neutral	Neutral	hit	n/a
316.2375	n/a	RESPONSE	n/a	n/a	n/a	n/a	n/a	n/a	n/a	blue
316.2646	1.0167	ITI	n/a	n/a	n/a	n/a	n/a	n/a	n/a	n/a
317.2813	0.5167	FIXCROSS	n/a	n/a	n/a	n/a	n/a	n/a	n/a	n/a
317.798	0.4	COLOR_NAME	18	Neutral	niebieski	blue	Neutral	Neutral	hit	n/a
318.1731	n/a	RESPONSE	n/a	n/a	n/a	n/a	n/a	n/a	n/a	blue
318.198	1.0167	ITI	n/a	n/a	n/a	n/a	n/a	n/a	n/a	n/a
319.2146	0.5167	FIXCROSS	n/a	n/a	n/a	n/a	n/a	n/a	n/a	n/a
319.7313	0.6667	COLOR_NAME	19	Incongruent	zielony	green	niebieski	blue	hit	n/a
320.3646	n/a	RESPONSE	n/a	n/a	n/a	n/a	n/a	n/a	n/a	green
320.398	1.0167	ITI	n/a	n/a	n/a	n/a	n/a	n/a	n/a	n/a
321.4147	0.5167	FIXCROSS	n/a	n/a	n/a	n/a	n/a	n/a	n/a	n/a
321.9313	0.5167	COLOR_NAME	20	Neutral	żółty	yellow	Neutral	Neutral	hit	n/a
322.4283	n/a	RESPONSE	n/a	n/a	n/a	n/a	n/a	n/a	n/a	yellow
322.448	1.0167	ITI	n/a	n/a	n/a	n/a	n/a	n/a	n/a	n/a
323.4647	0.5167	FIXCROSS	n/a	n/a	n/a	n/a	n/a	n/a	n/a	n/a
323.9813	0.7333	COLOR_NAME	21	Neutral	niebieski	blue	Neutral	Neutral	hit	n/a
324.6837	n/a	RESPONSE	n/a	n/a	n/a	n/a	n/a	n/a	n/a	blue
324.7147	1.0167	ITI	n/a	n/a	n/a	n/a	n/a	n/a	n/a	n/a
325.7314	0.5167	FIXCROSS	n/a	n/a	n/a	n/a	n/a	n/a	n/a	n/a
326.248	0.6333	COLOR_NAME	22	Neutral	czerwony	red	Neutral	Neutral	hit	n/a
326.8593	n/a	RESPONSE	n/a	n/a	n/a	n/a	n/a	n/a	n/a	red
326.8814	1.0167	ITI	n/a	n/a	n/a	n/a	n/a	n/a	n/a	n/a
327.898	0.5167	FIXCROSS	n/a	n/a	n/a	n/a	n/a	n/a	n/a	n/a
328.4147	0.55	COLOR_NAME	23	Neutral	zielony	green	Neutral	Neutral	hit	n/a
328.9388	n/a	RESPONSE	n/a	n/a	n/a	n/a	n/a	n/a	n/a	green
328.9647	1.0167	ITI	n/a	n/a	n/a	n/a	n/a	n/a	n/a	n/a
329.9814	0.5167	FIXCROSS	n/a	n/a	n/a	n/a	n/a	n/a	n/a	n/a
330.4981	0.6	COLOR_NAME	24	Incongruent	zielony	green	żółty	yellow	hit	n/a
331.0664	n/a	RESPONSE	n/a	n/a	n/a	n/a	n/a	n/a	n/a	green
331.0981	1.0167	ITI	n/a	n/a	n/a	n/a	n/a	n/a	n/a	n/a
332.1147	0.5167	FIXCROSS	n/a	n/a	n/a	n/a	n/a	n/a	n/a	n/a
332.6314	0.5833	COLOR_NAME	25	Incongruent	czerwony	red	zielony	green	hit	n/a
333.1939	n/a	RESPONSE	n/a	n/a	n/a	n/a	n/a	n/a	n/a	red
333.2147	1.0167	ITI	n/a	n/a	n/a	n/a	n/a	n/a	n/a	n/a
334.2314	0.5167	FIXCROSS	n/a	n/a	n/a	n/a	n/a	n/a	n/a	n/a
334.7481	0.55	COLOR_NAME	26	Incongruent	czerwony	red	zielony	green	hit	n/a
335.2735	n/a	RESPONSE	n/a	n/a	n/a	n/a	n/a	n/a	n/a	red
335.2981	1.0167	ITI	n/a	n/a	n/a	n/a	n/a	n/a	n/a	n/a
336.3148	0.5167	FIXCROSS	n/a	n/a	n/a	n/a	n/a	n/a	n/a	n/a
336.8314	0.6333	COLOR_NAME	27	Neutral	niebieski	blue	Neutral	Neutral	hit	n/a
337.4331	n/a	RESPONSE	n/a	n/a	n/a	n/a	n/a	n/a	n/a	blue
337.4648	1.0167	ITI	n/a	n/a	n/a	n/a	n/a	n/a	n/a	n/a
338.4814	0.5167	FIXCROSS	n/a	n/a	n/a	n/a	n/a	n/a	n/a	n/a
338.9981	0.4667	COLOR_NAME	28	Neutral	zielony	green	Neutral	Neutral	hit	n/a
339.4326	n/a	RESPONSE	n/a	n/a	n/a	n/a	n/a	n/a	n/a	green
339.4648	1.0167	ITI	n/a	n/a	n/a	n/a	n/a	n/a	n/a	n/a
340.4815	0.5167	FIXCROSS	n/a	n/a	n/a	n/a	n/a	n/a	n/a	n/a
340.9981	0.5833	COLOR_NAME	29	Incongruent	czerwony	red	niebieski	blue	hit	n/a
341.5601	n/a	RESPONSE	n/a	n/a	n/a	n/a	n/a	n/a	n/a	red
341.5815	1.0167	ITI	n/a	n/a	n/a	n/a	n/a	n/a	n/a	n/a
342.5981	0.5167	FIXCROSS	n/a	n/a	n/a	n/a	n/a	n/a	n/a	n/a
343.1148	0.5667	COLOR_NAME	30	Incongruent	żółty	yellow	niebieski	blue	hit	n/a
343.6557	n/a	RESPONSE	n/a	n/a	n/a	n/a	n/a	n/a	n/a	yellow
343.6815	1.0167	ITI	n/a	n/a	n/a	n/a	n/a	n/a	n/a	n/a
344.6981	0.5167	FIXCROSS	n/a	n/a	n/a	n/a	n/a	n/a	n/a	n/a
345.2148	0.6333	COLOR_NAME	31	Incongruent	żółty	yellow	zielony	green	hit	n/a
345.8153	n/a	RESPONSE	n/a	n/a	n/a	n/a	n/a	n/a	n/a	yellow
345.8482	1.0167	ITI	n/a	n/a	n/a	n/a	n/a	n/a	n/a	n/a
346.8648	0.5167	FIXCROSS	n/a	n/a	n/a	n/a	n/a	n/a	n/a	n/a
347.3815	0.5333	COLOR_NAME	32	Incongruent	żółty	yellow	zielony	green	hit	n/a
347.8948	n/a	RESPONSE	n/a	n/a	n/a	n/a	n/a	n/a	n/a	yellow
347.9148	1.0167	ITI	n/a	n/a	n/a	n/a	n/a	n/a	n/a	n/a
348.9315	0.5167	FIXCROSS	n/a	n/a	n/a	n/a	n/a	n/a	n/a	n/a
349.4482	0.7167	COLOR_NAME	33	Neutral	zielony	green	Neutral	Neutral	hit	n/a
350.1344	n/a	RESPONSE	n/a	n/a	n/a	n/a	n/a	n/a	n/a	green
350.1649	1.0167	ITI	n/a	n/a	n/a	n/a	n/a	n/a	n/a	n/a
351.1815	0.5167	FIXCROSS	n/a	n/a	n/a	n/a	n/a	n/a	n/a	n/a
351.6982	0.5833	COLOR_NAME	34	Neutral	niebieski	blue	Neutral	Neutral	hit	n/a
352.2619	n/a	RESPONSE	n/a	n/a	n/a	n/a	n/a	n/a	n/a	blue
352.2815	1.0167	ITI	n/a	n/a	n/a	n/a	n/a	n/a	n/a	n/a
353.2982	0.5167	FIXCROSS	n/a	n/a	n/a	n/a	n/a	n/a	n/a	n/a
353.8149	0.5333	COLOR_NAME	35	Neutral	czerwony	red	Neutral	Neutral	hit	n/a
354.3255	n/a	RESPONSE	n/a	n/a	n/a	n/a	n/a	n/a	n/a	red
354.3482	1.0167	ITI	n/a	n/a	n/a	n/a	n/a	n/a	n/a	n/a
355.3649	0.5167	FIXCROSS	n/a	n/a	n/a	n/a	n/a	n/a	n/a	n/a
355.8816	0.5333	COLOR_NAME	36	Neutral	niebieski	blue	Neutral	Neutral	hit	n/a
356.3884	n/a	RESPONSE	n/a	n/a	n/a	n/a	n/a	n/a	n/a	blue
356.4149	1.0167	ITI	n/a	n/a	n/a	n/a	n/a	n/a	n/a	n/a
357.4316	0.5167	FIXCROSS	n/a	n/a	n/a	n/a	n/a	n/a	n/a	n/a
357.9482	0.65	COLOR_NAME	37	Incongruent	zielony	green	żółty	yellow	hit	n/a
358.5806	n/a	RESPONSE	n/a	n/a	n/a	n/a	n/a	n/a	n/a	green
358.5982	1.0167	ITI	n/a	n/a	n/a	n/a	n/a	n/a	n/a	n/a
359.6149	0.5167	FIXCROSS	n/a	n/a	n/a	n/a	n/a	n/a	n/a	n/a
360.1316	0.5333	COLOR_NAME	38	Neutral	czerwony	red	Neutral	Neutral	hit	n/a
360.6441	n/a	RESPONSE	n/a	n/a	n/a	n/a	n/a	n/a	n/a	red
360.6649	1.0167	ITI	n/a	n/a	n/a	n/a	n/a	n/a	n/a	n/a
361.6816	0.5167	FIXCROSS	n/a	n/a	n/a	n/a	n/a	n/a	n/a	n/a
362.1983	0.5333	COLOR_NAME	39	Incongruent	czerwony	red	żółty	yellow	hit	n/a
362.7077	n/a	RESPONSE	n/a	n/a	n/a	n/a	n/a	n/a	n/a	red
362.7316	1.0167	ITI	n/a	n/a	n/a	n/a	n/a	n/a	n/a	n/a
363.7483	0.5167	FIXCROSS	n/a	n/a	n/a	n/a	n/a	n/a	n/a	n/a
364.265	0.7	COLOR_NAME	40	Neutral	żółty	yellow	Neutral	Neutral	hit	n/a
364.9312	n/a	RESPONSE	n/a	n/a	n/a	n/a	n/a	n/a	n/a	yellow
364.965	1.0167	ITI	n/a	n/a	n/a	n/a	n/a	n/a	n/a	n/a
365.9816	0.5167	FIXCROSS	n/a	n/a	n/a	n/a	n/a	n/a	n/a	n/a
366.4983	0.45	COLOR_NAME	41	Neutral	żółty	yellow	Neutral	Neutral	hit	n/a
366.9308	n/a	RESPONSE	n/a	n/a	n/a	n/a	n/a	n/a	n/a	yellow
366.9483	1.0167	ITI	n/a	n/a	n/a	n/a	n/a	n/a	n/a	n/a
367.965	0.5167	FIXCROSS	n/a	n/a	n/a	n/a	n/a	n/a	n/a	n/a
368.4816	0.8167	COLOR_NAME	42	Incongruent	żółty	yellow	czerwony	red	hit	n/a
369.2663	n/a	RESPONSE	n/a	n/a	n/a	n/a	n/a	n/a	n/a	yellow
369.2983	1.0167	ITI	n/a	n/a	n/a	n/a	n/a	n/a	n/a	n/a
370.315	0.5167	FIXCROSS	n/a	n/a	n/a	n/a	n/a	n/a	n/a	n/a
370.8317	0.6833	COLOR_NAME	43	Neutral	czerwony	red	Neutral	Neutral	hit	n/a
371.4899	n/a	RESPONSE	n/a	n/a	n/a	n/a	n/a	n/a	n/a	red
371.515	1.0167	ITI	n/a	n/a	n/a	n/a	n/a	n/a	n/a	n/a
372.5317	0.5167	FIXCROSS	n/a	n/a	n/a	n/a	n/a	n/a	n/a	n/a
373.0483	0.6333	COLOR_NAME	44	Neutral	niebieski	blue	Neutral	Neutral	hit	n/a
373.6494	n/a	RESPONSE	n/a	n/a	n/a	n/a	n/a	n/a	n/a	blue
373.6817	1.0167	ITI	n/a	n/a	n/a	n/a	n/a	n/a	n/a	n/a
374.6984	0.5167	FIXCROSS	n/a	n/a	n/a	n/a	n/a	n/a	n/a	n/a
375.215	0.5833	COLOR_NAME	45	Neutral	zielony	green	Neutral	Neutral	hit	n/a
375.777	n/a	RESPONSE	n/a	n/a	n/a	n/a	n/a	n/a	n/a	green
375.7984	1.0167	ITI	n/a	n/a	n/a	n/a	n/a	n/a	n/a	n/a
376.815	0.5167	FIXCROSS	n/a	n/a	n/a	n/a	n/a	n/a	n/a	n/a
377.3317	0.55	COLOR_NAME	46	Neutral	żółty	yellow	Neutral	Neutral	hit	n/a
377.8566	n/a	RESPONSE	n/a	n/a	n/a	n/a	n/a	n/a	n/a	yellow
377.8817	1.0167	ITI	n/a	n/a	n/a	n/a	n/a	n/a	n/a	n/a
378.8984	0.5167	FIXCROSS	n/a	n/a	n/a	n/a	n/a	n/a	n/a	n/a
379.415	0.6	COLOR_NAME	47	Incongruent	żółty	yellow	niebieski	blue	hit	n/a
379.9841	n/a	RESPONSE	n/a	n/a	n/a	n/a	n/a	n/a	n/a	yellow
380.0151	1.0167	ITI	n/a	n/a	n/a	n/a	n/a	n/a	n/a	n/a
381.0317	0.5167	FIXCROSS	n/a	n/a	n/a	n/a	n/a	n/a	n/a	n/a
381.5484	0.75	COLOR_NAME	48	Incongruent	niebieski	blue	zielony	green	hit	n/a
382.2716	n/a	RESPONSE	n/a	n/a	n/a	n/a	n/a	n/a	n/a	blue
382.2984	1.0167	ITI	n/a	n/a	n/a	n/a	n/a	n/a	n/a	n/a
383.3151	0.5167	FIXCROSS	n/a	n/a	n/a	n/a	n/a	n/a	n/a	n/a
383.8317	0.9833	COLOR_NAME	49	Incongruent	niebieski	blue	czerwony	red	incorrect	n/a
384.7831	n/a	RESPONSE	n/a	n/a	n/a	n/a	n/a	n/a	n/a	red
384.8151	1.0167	ITI	n/a	n/a	n/a	n/a	n/a	n/a	n/a	n/a
385.8318	0.5167	FIXCROSS	n/a	n/a	n/a	n/a	n/a	n/a	n/a	n/a
386.3484	0.65	COLOR_NAME	50	Incongruent	niebieski	blue	żółty	yellow	hit	n/a
386.9746	n/a	RESPONSE	n/a	n/a	n/a	n/a	n/a	n/a	n/a	blue
386.9984	1.0167	ITI	n/a	n/a	n/a	n/a	n/a	n/a	n/a	n/a
388.0151	0.5167	FIXCROSS	n/a	n/a	n/a	n/a	n/a	n/a	n/a	n/a
388.5318	0.7333	COLOR_NAME	51	Neutral	żółty	yellow	Neutral	Neutral	hit	n/a
389.2461	n/a	RESPONSE	n/a	n/a	n/a	n/a	n/a	n/a	n/a	yellow
389.2651	1.0167	ITI	n/a	n/a	n/a	n/a	n/a	n/a	n/a	n/a
390.2818	0.5167	FIXCROSS	n/a	n/a	n/a	n/a	n/a	n/a	n/a	n/a
390.7985	0.6667	COLOR_NAME	52	Incongruent	żółty	yellow	czerwony	red	hit	n/a
391.4376	n/a	RESPONSE	n/a	n/a	n/a	n/a	n/a	n/a	n/a	yellow
391.4651	1.0167	ITI	n/a	n/a	n/a	n/a	n/a	n/a	n/a	n/a
392.4818	0.5167	FIXCROSS	n/a	n/a	n/a	n/a	n/a	n/a	n/a	n/a
392.9985	0.9333	COLOR_NAME	53	Neutral	czerwony	red	Neutral	Neutral	hit	n/a
393.9012	n/a	RESPONSE	n/a	n/a	n/a	n/a	n/a	n/a	n/a	red
393.9318	1.0167	ITI	n/a	n/a	n/a	n/a	n/a	n/a	n/a	n/a
394.9485	0.5167	FIXCROSS	n/a	n/a	n/a	n/a	n/a	n/a	n/a	n/a
395.4652	0.7667	COLOR_NAME	54	Incongruent	niebieski	blue	zielony	green	hit	n/a
396.2047	n/a	RESPONSE	n/a	n/a	n/a	n/a	n/a	n/a	n/a	blue
396.2318	1.0167	ITI	n/a	n/a	n/a	n/a	n/a	n/a	n/a	n/a
397.2485	0.5167	FIXCROSS	n/a	n/a	n/a	n/a	n/a	n/a	n/a	n/a
397.7652	0.7667	COLOR_NAME	55	Incongruent	zielony	green	czerwony	red	hit	n/a
398.5082	n/a	RESPONSE	n/a	n/a	n/a	n/a	n/a	n/a	n/a	green
398.5318	1.0167	ITI	n/a	n/a	n/a	n/a	n/a	n/a	n/a	n/a
399.5485	0.5167	FIXCROSS	n/a	n/a	n/a	n/a	n/a	n/a	n/a	n/a
400.0652	0.7833	COLOR_NAME	56	Neutral	czerwony	red	Neutral	Neutral	hit	n/a
400.8277	n/a	RESPONSE	n/a	n/a	n/a	n/a	n/a	n/a	n/a	red
400.8485	1.0167	ITI	n/a	n/a	n/a	n/a	n/a	n/a	n/a	n/a
401.8652	0.5167	FIXCROSS	n/a	n/a	n/a	n/a	n/a	n/a	n/a	n/a
402.3819	0.7333	COLOR_NAME	57	Incongruent	zielony	green	niebieski	blue	incorrect	n/a
403.0833	n/a	RESPONSE	n/a	n/a	n/a	n/a	n/a	n/a	n/a	yellow
403.1152	1.0167	ITI	n/a	n/a	n/a	n/a	n/a	n/a	n/a	n/a
404.1319	0.5167	FIXCROSS	n/a	n/a	n/a	n/a	n/a	n/a	n/a	n/a
404.6486	1.1667	COLOR_NAME	58	Neutral	zielony	green	Neutral	Neutral	hit	n/a
405.7867	n/a	RESPONSE	n/a	n/a	n/a	n/a	n/a	n/a	n/a	green
405.8152	1.0167	ITI	n/a	n/a	n/a	n/a	n/a	n/a	n/a	n/a
406.8319	0.5167	FIXCROSS	n/a	n/a	n/a	n/a	n/a	n/a	n/a	n/a
407.3486	1.1667	COLOR_NAME	59	Incongruent	czerwony	red	zielony	green	hit	n/a
408.4901	n/a	RESPONSE	n/a	n/a	n/a	n/a	n/a	n/a	n/a	red
408.5153	1.0167	ITI	n/a	n/a	n/a	n/a	n/a	n/a	n/a	n/a
409.5319	0.5167	FIXCROSS	n/a	n/a	n/a	n/a	n/a	n/a	n/a	n/a
410.0486	2.05	COLOR_NAME	60	Incongruent	niebieski	blue	czerwony	red	hit	n/a
412.0733	n/a	RESPONSE	n/a	n/a	n/a	n/a	n/a	n/a	n/a	blue
412.0986	1.0167	ITI	n/a	n/a	n/a	n/a	n/a	n/a	n/a	n/a
413.1153	0.5167	FIXCROSS	n/a	n/a	n/a	n/a	n/a	n/a	n/a	n/a
413.632	0.6	COLOR_NAME	61	Neutral	niebieski	blue	Neutral	Neutral	hit	n/a
414.2009	n/a	RESPONSE	n/a	n/a	n/a	n/a	n/a	n/a	n/a	blue
414.232	1.0167	ITI	n/a	n/a	n/a	n/a	n/a	n/a	n/a	n/a
415.2486	0.5167	FIXCROSS	n/a	n/a	n/a	n/a	n/a	n/a	n/a	n/a
415.7653	0.8667	COLOR_NAME	62	Neutral	żółty	yellow	Neutral	Neutral	hit	n/a
416.6004	n/a	RESPONSE	n/a	n/a	n/a	n/a	n/a	n/a	n/a	yellow
416.632	1.0167	ITI	n/a	n/a	n/a	n/a	n/a	n/a	n/a	n/a
417.6486	0.5167	FIXCROSS	n/a	n/a	n/a	n/a	n/a	n/a	n/a	n/a
418.1653	1.7834	COLOR_NAME	63	Incongruent	czerwony	red	żółty	yellow	hit	n/a
419.9277	n/a	RESPONSE	n/a	n/a	n/a	n/a	n/a	n/a	n/a	red
419.9487	1.0167	ITI	n/a	n/a	n/a	n/a	n/a	n/a	n/a	n/a
420.9653	0.5167	FIXCROSS	n/a	n/a	n/a	n/a	n/a	n/a	n/a	n/a
421.482	1.6167	COLOR_NAME	64	Incongruent	niebieski	blue	czerwony	red	incorrect	n/a
423.079	n/a	RESPONSE	n/a	n/a	n/a	n/a	n/a	n/a	n/a	green
423.0987	1.0167	ITI	n/a	n/a	n/a	n/a	n/a	n/a	n/a	n/a
423.287	n/a	RESPONSE	n/a	n/a	n/a	n/a	n/a	n/a	n/a	blue
424.1154	0.5167	FIXCROSS	n/a	n/a	n/a	n/a	n/a	n/a	n/a	n/a
424.632	1.0333	COLOR_NAME	65	Incongruent	żółty	yellow	zielony	green	hit	n/a
425.6385	n/a	RESPONSE	n/a	n/a	n/a	n/a	n/a	n/a	n/a	yellow
425.6654	1.0167	ITI	n/a	n/a	n/a	n/a	n/a	n/a	n/a	n/a
426.682	0.5167	FIXCROSS	n/a	n/a	n/a	n/a	n/a	n/a	n/a	n/a
427.1987	0.6333	COLOR_NAME	66	Neutral	czerwony	red	Neutral	Neutral	hit	n/a
427.814	n/a	RESPONSE	n/a	n/a	n/a	n/a	n/a	n/a	n/a	red
427.832	1.0167	ITI	n/a	n/a	n/a	n/a	n/a	n/a	n/a	n/a
428.8487	0.5167	FIXCROSS	n/a	n/a	n/a	n/a	n/a	n/a	n/a	n/a
429.3654	1.0667	COLOR_NAME	67	Incongruent	żółty	yellow	czerwony	red	hit	n/a
430.4055	n/a	RESPONSE	n/a	n/a	n/a	n/a	n/a	n/a	n/a	yellow
430.4321	1.0167	ITI	n/a	n/a	n/a	n/a	n/a	n/a	n/a	n/a
431.4487	0.5167	FIXCROSS	n/a	n/a	n/a	n/a	n/a	n/a	n/a	n/a
431.9654	0.7333	COLOR_NAME	68	Neutral	zielony	green	Neutral	Neutral	hit	n/a
432.677	n/a	RESPONSE	n/a	n/a	n/a	n/a	n/a	n/a	n/a	green
432.6987	1.0167	ITI	n/a	n/a	n/a	n/a	n/a	n/a	n/a	n/a
433.7154	0.5167	FIXCROSS	n/a	n/a	n/a	n/a	n/a	n/a	n/a	n/a
434.2321	0.6333	COLOR_NAME	69	Neutral	czerwony	red	Neutral	Neutral	hit	n/a
434.8366	n/a	RESPONSE	n/a	n/a	n/a	n/a	n/a	n/a	n/a	red
434.8654	1.0167	ITI	n/a	n/a	n/a	n/a	n/a	n/a	n/a	n/a
435.8821	0.5167	FIXCROSS	n/a	n/a	n/a	n/a	n/a	n/a	n/a	n/a
436.3988	0.8667	COLOR_NAME	70	Neutral	niebieski	blue	Neutral	Neutral	hit	n/a
437.2361	n/a	RESPONSE	n/a	n/a	n/a	n/a	n/a	n/a	n/a	blue
437.2654	1.0167	ITI	n/a	n/a	n/a	n/a	n/a	n/a	n/a	n/a
438.2821	0.5167	FIXCROSS	n/a	n/a	n/a	n/a	n/a	n/a	n/a	n/a
438.7988	0.6	COLOR_NAME	71	Incongruent	żółty	yellow	niebieski	blue	hit	n/a
439.3796	n/a	RESPONSE	n/a	n/a	n/a	n/a	n/a	n/a	n/a	yellow
439.3988	1.0167	ITI	n/a	n/a	n/a	n/a	n/a	n/a	n/a	n/a
440.4155	0.5167	FIXCROSS	n/a	n/a	n/a	n/a	n/a	n/a	n/a	n/a
440.9321	0.4333	COLOR_NAME	72	Neutral	żółty	yellow	Neutral	Neutral	hit	n/a
441.3471	n/a	RESPONSE	n/a	n/a	n/a	n/a	n/a	n/a	n/a	yellow
441.3655	1.0333	ITI	n/a	n/a	n/a	n/a	n/a	n/a	n/a	n/a
445.4583	n/a	RESPONSE	n/a	n/a	n/a	n/a	n/a	n/a	n/a	n/a
