onset	duration	trial_type	melody_number	melody_part	key	sound	action
0.0	14.083	CUE_START	n/a	n/a	n/a	n/a	n/a
14.083	7.76	FIXCROSS	n/a	n/a	n/a	n/a	n/a
21.843	6.316	CUE_LISTEN	M3	1	n/a	n/a	n/a
28.158	7.758	FIXCROSS	n/a	n/a	n/a	n/a	n/a
35.917	6.325	CUE_PLAYBACK_BOTH_HANDS	M3	1	n/a	n/a	n/a
37.16	n/a	RESPONSE	M3	1	00	C3	press
37.172	n/a	RESPONSE	M3	1	12	C4	press
37.773	n/a	RESPONSE	M3	1	14	D4	press
37.794	n/a	RESPONSE	M3	1	07	G3	press
37.963	n/a	RESPONSE	M3	1	00	C3	release
37.967	n/a	RESPONSE	M3	1	12	C4	release
38.375	n/a	RESPONSE	M3	1	04	E3	press
38.384	n/a	RESPONSE	M3	1	16	E4	press
38.483	n/a	RESPONSE	M3	1	14	D4	release
38.488	n/a	RESPONSE	M3	1	07	G3	release
39.035	n/a	RESPONSE	M3	1	07	G3	press
39.05	n/a	RESPONSE	M3	1	12	C4	press
39.132	n/a	RESPONSE	M3	1	16	E4	release
39.23	n/a	RESPONSE	M3	1	04	E3	release
39.428	n/a	RESPONSE	M3	1	12	C4	release
39.51	n/a	RESPONSE	M3	1	07	G3	release
39.644	n/a	RESPONSE	M3	1	00	C3	press
39.662	n/a	RESPONSE	M3	1	12	C4	press
40.26	n/a	RESPONSE	M3	1	07	G3	press
40.27	n/a	RESPONSE	M3	1	14	D4	press
40.375	n/a	RESPONSE	M3	1	12	C4	release
40.419	n/a	RESPONSE	M3	1	00	C3	release
40.889	n/a	RESPONSE	M3	1	04	E3	press
40.9	n/a	RESPONSE	M3	1	16	E4	press
40.992	n/a	RESPONSE	M3	1	14	D4	release
40.994	n/a	RESPONSE	M3	1	07	G3	release
41.554	n/a	RESPONSE	M3	1	07	G3	press
41.556	n/a	RESPONSE	M3	1	12	C4	press
41.608	n/a	RESPONSE	M3	1	16	E4	release
41.678	n/a	RESPONSE	M3	1	04	E3	release
42.242	7.758	FIXCROSS	n/a	n/a	n/a	n/a	n/a
42.259	n/a	RESPONSE	M3	1	12	C4	release
42.263	n/a	RESPONSE	M3	1	07	G3	release
50.0	6.317	CUE_LISTEN	M3	2	n/a	n/a	n/a
56.317	7.758	FIXCROSS	n/a	n/a	n/a	n/a	n/a
64.075	6.325	CUE_PLAYBACK_BOTH_HANDS	M3	2	n/a	n/a	n/a
64.543	n/a	RESPONSE	M3	2	00	C3	press
64.545	n/a	RESPONSE	M3	2	16	E4	press
65.028	n/a	RESPONSE	M3	2	17	F4	press
65.039	n/a	RESPONSE	M3	2	07	G3	press
65.129	n/a	RESPONSE	M3	2	16	E4	release
65.269	n/a	RESPONSE	M3	2	00	C3	release
65.56	n/a	RESPONSE	M3	2	19	G4	press
65.572	n/a	RESPONSE	M3	2	04	E3	press
65.624	n/a	RESPONSE	M3	2	17	F4	release
65.654	n/a	RESPONSE	M3	2	07	G3	release
66.095	n/a	RESPONSE	M3	2	07	G3	press
66.246	n/a	RESPONSE	M3	2	04	E3	release
66.628	n/a	RESPONSE	M3	2	16	E4	press
66.639	n/a	RESPONSE	M3	2	00	C3	press
66.71	n/a	RESPONSE	M3	2	19	G4	release
66.732	n/a	RESPONSE	M3	2	07	G3	release
67.154	n/a	RESPONSE	M3	2	07	G3	press
67.184	n/a	RESPONSE	M3	2	17	F4	press
67.253	n/a	RESPONSE	M3	2	16	E4	release
67.294	n/a	RESPONSE	M3	2	00	C3	release
67.699	n/a	RESPONSE	M3	2	04	E3	press
67.725	n/a	RESPONSE	M3	2	19	G4	press
67.815	n/a	RESPONSE	M3	2	07	G3	release
67.818	n/a	RESPONSE	M3	2	17	F4	release
68.308	n/a	RESPONSE	M3	2	07	G3	press
68.498	n/a	RESPONSE	M3	2	04	E3	release
69.04	n/a	RESPONSE	M3	2	07	G3	release
69.068	n/a	RESPONSE	M3	2	19	G4	release
70.4	7.758	FIXCROSS	n/a	n/a	n/a	n/a	n/a
78.158	6.317	CUE_LISTEN	M3	1	n/a	n/a	n/a
84.475	7.758	FIXCROSS	n/a	n/a	n/a	n/a	n/a
92.233	6.317	CUE_PLAYBACK_BOTH_HANDS	M3	1	n/a	n/a	n/a
92.789	n/a	RESPONSE	M3	1	00	C3	press
92.798	n/a	RESPONSE	M3	1	19	G4	press
93.209	n/a	RESPONSE	M3	1	21	A4	press
93.3	n/a	RESPONSE	M3	1	07	G3	press
93.303	n/a	RESPONSE	M3	1	19	G4	release
93.753	n/a	RESPONSE	M3	1	07	G3	release
93.915	n/a	RESPONSE	M3	1	21	A4	release
93.945	n/a	RESPONSE	M3	1	00	C3	release
94.346	n/a	RESPONSE	M3	1	19	G4	press
94.728	n/a	RESPONSE	M3	1	19	G4	release
94.932	n/a	RESPONSE	M3	1	00	C3	press
94.962	n/a	RESPONSE	M3	1	19	G4	press
95.342	n/a	RESPONSE	M3	1	21	A4	press
95.405	n/a	RESPONSE	M3	1	19	G4	release
95.724	n/a	RESPONSE	M3	1	19	G4	press
95.745	n/a	RESPONSE	M3	1	07	G3	press
95.806	n/a	RESPONSE	M3	1	21	A4	release
96.008	n/a	RESPONSE	M3	1	00	C3	release
96.139	n/a	RESPONSE	M3	1	17	F4	press
96.453	n/a	RESPONSE	M3	1	19	G4	release
96.572	n/a	RESPONSE	M3	1	04	E3	press
96.593	n/a	RESPONSE	M3	1	16	E4	press
96.654	n/a	RESPONSE	M3	1	07	G3	release
96.745	n/a	RESPONSE	M3	1	17	F4	release
97.42	n/a	RESPONSE	M3	1	14	D4	press
97.425	n/a	RESPONSE	M3	1	07	G3	press
97.526	n/a	RESPONSE	M3	1	16	E4	release
97.629	n/a	RESPONSE	M3	1	04	E3	release
97.906	n/a	RESPONSE	M3	1	14	D4	release
98.048	n/a	RESPONSE	M3	1	07	G3	release
98.258	n/a	RESPONSE	M3	1	00	C3	press
98.26	n/a	RESPONSE	M3	1	19	G4	press
98.55	7.758	FIXCROSS	n/a	n/a	n/a	n/a	n/a
98.646	n/a	RESPONSE	M3	1	21	A4	press
98.758	n/a	RESPONSE	M3	1	19	G4	release
99.088	n/a	RESPONSE	M3	1	00	C3	release
99.156	n/a	RESPONSE	M3	1	21	A4	release
106.308	6.325	CUE_LISTEN	M3	2	n/a	n/a	n/a
112.633	7.758	FIXCROSS	n/a	n/a	n/a	n/a	n/a
120.392	6.317	CUE_PLAYBACK_BOTH_HANDS	M3	2	n/a	n/a	n/a
121.009	n/a	RESPONSE	M3	2	12	C4	press
121.02	n/a	RESPONSE	M3	2	00	C3	press
121.582	n/a	RESPONSE	M3	2	07	G3	press
121.605	n/a	RESPONSE	M3	2	09	A3	press
121.825	n/a	RESPONSE	M3	2	07	G3	release
121.985	n/a	RESPONSE	M3	2	09	A3	release
122.126	n/a	RESPONSE	M3	2	00	C3	release
122.168	n/a	RESPONSE	M3	2	12	C4	release
122.239	n/a	RESPONSE	M3	2	12	C4	press
122.242	n/a	RESPONSE	M3	2	00	C3	press
122.883	n/a	RESPONSE	M3	2	00	C3	release
122.914	n/a	RESPONSE	M3	2	12	C4	release
123.164	n/a	RESPONSE	M3	2	00	C3	press
123.185	n/a	RESPONSE	M3	2	12	C4	press
123.727	n/a	RESPONSE	M3	2	07	G3	press
124.178	n/a	RESPONSE	M3	2	07	G3	release
124.429	n/a	RESPONSE	M3	2	07	G3	press
124.452	n/a	RESPONSE	M3	2	09	A3	press
124.632	n/a	RESPONSE	M3	2	07	G3	release
124.945	n/a	RESPONSE	M3	2	09	A3	release
125.024	n/a	RESPONSE	M3	2	00	C3	release
125.045	n/a	RESPONSE	M3	2	12	C4	release
125.206	n/a	RESPONSE	M3	2	12	C4	press
125.209	n/a	RESPONSE	M3	2	00	C3	press
125.999	n/a	RESPONSE	M3	2	00	C3	release
126.08	n/a	RESPONSE	M3	2	12	C4	release
126.708	7.758	FIXCROSS	n/a	n/a	n/a	n/a	n/a
134.467	6.317	CUE_LISTEN	M1	1	n/a	n/a	n/a
140.783	7.758	FIXCROSS	n/a	n/a	n/a	n/a	n/a
148.542	6.325	CUE_PLAYBACK_BOTH_HANDS	M1	1	n/a	n/a	n/a
149.032	n/a	RESPONSE	M1	1	04	E3	press
149.034	n/a	RESPONSE	M1	1	07	G3	press
149.04	n/a	RESPONSE	M1	1	19	G4	press
149.05	n/a	RESPONSE	M1	1	00	C3	press
149.65	n/a	RESPONSE	M1	1	16	E4	press
149.763	n/a	RESPONSE	M1	1	19	G4	release
150.068	n/a	RESPONSE	M1	1	16	E4	release
150.223	n/a	RESPONSE	M1	1	16	E4	press
150.598	n/a	RESPONSE	M1	1	04	E3	release
150.614	n/a	RESPONSE	M1	1	16	E4	release
150.617	n/a	RESPONSE	M1	1	00	C3	release
151.254	n/a	RESPONSE	M1	1	02	D3	press
151.265	n/a	RESPONSE	M1	1	05	F3	press
151.296	n/a	RESPONSE	M1	1	17	F4	press
151.97	n/a	RESPONSE	M1	1	14	D4	press
152.022	n/a	RESPONSE	M1	1	17	F4	release
152.35	n/a	RESPONSE	M1	1	14	D4	release
152.532	n/a	RESPONSE	M1	1	14	D4	press
152.763	n/a	RESPONSE	M1	1	05	F3	release
152.784	n/a	RESPONSE	M1	1	14	D4	release
152.805	n/a	RESPONSE	M1	1	02	D3	release
153.118	n/a	RESPONSE	M1	1	04	E3	press
153.129	n/a	RESPONSE	M1	1	12	C4	press
153.42	n/a	RESPONSE	M1	1	00	C3	press
153.472	n/a	RESPONSE	M1	1	16	E4	press
153.793	n/a	RESPONSE	M1	1	19	G4	press
153.884	n/a	RESPONSE	M1	1	12	C4	release
153.905	n/a	RESPONSE	M1	1	16	E4	release
154.618	n/a	RESPONSE	M1	1	04	E3	release
154.658	n/a	RESPONSE	M1	1	19	G4	release
154.72	n/a	RESPONSE	M1	1	00	C3	release
154.867	7.758	FIXCROSS	n/a	n/a	n/a	n/a	n/a
155.93	n/a	RESPONSE	M1	1	07	G3	release
162.625	6.325	CUE_LISTEN	M1	2	n/a	n/a	n/a
168.95	7.758	FIXCROSS	n/a	n/a	n/a	n/a	n/a
176.708	6.308	CUE_PLAYBACK_BOTH_HANDS	M1	2	n/a	n/a	n/a
177.162	n/a	RESPONSE	M1	2	04	E3	press
177.164	n/a	RESPONSE	M1	2	07	G3	press
177.173	n/a	RESPONSE	M1	2	19	G4	press
177.212	n/a	RESPONSE	M1	2	00	C3	press
177.793	n/a	RESPONSE	M1	2	16	E4	press
177.865	n/a	RESPONSE	M1	2	19	G4	release
178.233	n/a	RESPONSE	M1	2	16	E4	release
178.35	n/a	RESPONSE	M1	2	16	E4	press
178.673	n/a	RESPONSE	M1	2	00	C3	release
178.704	n/a	RESPONSE	M1	2	04	E3	release
178.72	n/a	RESPONSE	M1	2	16	E4	release
178.928	n/a	RESPONSE	M1	2	05	F3	press
178.955	n/a	RESPONSE	M1	2	17	F4	press
178.959	n/a	RESPONSE	M1	2	02	D3	press
179.545	n/a	RESPONSE	M1	2	14	D4	press
179.613	n/a	RESPONSE	M1	2	17	F4	release
179.995	n/a	RESPONSE	M1	2	14	D4	release
180.093	n/a	RESPONSE	M1	2	14	D4	press
180.353	n/a	RESPONSE	M1	2	02	D3	release
180.389	n/a	RESPONSE	M1	2	14	D4	release
180.446	n/a	RESPONSE	M1	2	05	F3	release
180.622	n/a	RESPONSE	M1	2	04	E3	press
180.686	n/a	RESPONSE	M1	2	12	C4	press
180.779	n/a	RESPONSE	M1	2	00	C3	press
180.986	n/a	RESPONSE	M1	2	16	E4	press
181.106	n/a	RESPONSE	M1	2	12	C4	release
181.288	n/a	RESPONSE	M1	2	12	C4	press
181.339	n/a	RESPONSE	M1	2	16	E4	release
182.52	n/a	RESPONSE	M1	2	04	E3	release
182.592	n/a	RESPONSE	M1	2	12	C4	release
182.733	n/a	RESPONSE	M1	2	00	C3	release
183.017	7.758	FIXCROSS	n/a	n/a	n/a	n/a	n/a
183.364	n/a	RESPONSE	M1	2	07	G3	release
190.775	6.325	CUE_LISTEN	M2	1	n/a	n/a	n/a
197.1	7.758	FIXCROSS	n/a	n/a	n/a	n/a	n/a
204.859	6.317	CUE_PLAYBACK_BOTH_HANDS	M2	1	n/a	n/a	n/a
205.353	n/a	RESPONSE	M2	1	07	G3	press
205.355	n/a	RESPONSE	M2	1	00	C3	press
205.358	n/a	RESPONSE	M2	1	23	B4	press
205.817	n/a	RESPONSE	M2	1	23	B4	release
205.948	n/a	RESPONSE	M2	1	07	G3	release
205.959	n/a	RESPONSE	M2	1	00	C3	release
206.243	n/a	RESPONSE	M2	1	07	G3	press
206.252	n/a	RESPONSE	M2	1	24	C5	press
206.254	n/a	RESPONSE	M2	1	00	C3	press
206.784	n/a	RESPONSE	M2	1	19	G4	press
206.907	n/a	RESPONSE	M2	1	24	C5	release
207.127	n/a	RESPONSE	M2	1	19	G4	release
207.188	n/a	RESPONSE	M2	1	00	C3	release
207.254	n/a	RESPONSE	M2	1	00	C3	press
207.263	n/a	RESPONSE	M2	1	19	G4	press
207.774	n/a	RESPONSE	M2	1	17	F4	press
207.878	n/a	RESPONSE	M2	1	19	G4	release
208.048	n/a	RESPONSE	M2	1	00	C3	release
208.053	n/a	RESPONSE	M2	1	07	G3	release
208.246	n/a	RESPONSE	M2	1	16	E4	press
208.249	n/a	RESPONSE	M2	1	07	G3	press
208.252	n/a	RESPONSE	M2	1	00	C3	press
208.298	n/a	RESPONSE	M2	1	17	F4	release
208.708	n/a	RESPONSE	M2	1	17	F4	press
208.922	n/a	RESPONSE	M2	1	16	E4	release
208.939	n/a	RESPONSE	M2	1	00	C3	release
209.039	n/a	RESPONSE	M2	1	07	G3	release
209.18	n/a	RESPONSE	M2	1	19	G4	press
209.199	n/a	RESPONSE	M2	1	00	C3	press
209.204	n/a	RESPONSE	M2	1	07	G3	press
209.284	n/a	RESPONSE	M2	1	17	F4	release
209.984	n/a	RESPONSE	M2	1	00	C3	release
210.043	n/a	RESPONSE	M2	1	07	G3	release
210.054	n/a	RESPONSE	M2	1	19	G4	release
211.175	7.758	FIXCROSS	n/a	n/a	n/a	n/a	n/a
218.934	6.317	CUE_LISTEN	M2	2	n/a	n/a	n/a
225.25	7.758	FIXCROSS	n/a	n/a	n/a	n/a	n/a
233.009	6.325	CUE_PLAYBACK_BOTH_HANDS	M2	2	n/a	n/a	n/a
233.405	n/a	RESPONSE	M2	2	07	G3	press
233.436	n/a	RESPONSE	M2	2	21	A4	press
233.46	n/a	RESPONSE	M2	2	00	C3	press
233.789	n/a	RESPONSE	M2	2	21	A4	release
233.883	n/a	RESPONSE	M2	2	00	C3	release
233.942	n/a	RESPONSE	M2	2	07	G3	release
234.203	n/a	RESPONSE	M2	2	07	G3	press
234.205	n/a	RESPONSE	M2	2	23	B4	press
234.215	n/a	RESPONSE	M2	2	00	C3	press
234.236	n/a	RESPONSE	M2	2	21	A4	press
234.498	n/a	RESPONSE	M2	2	21	A4	release
234.74	n/a	RESPONSE	M2	2	00	C3	release
234.763	n/a	RESPONSE	M2	2	23	B4	release
234.822	n/a	RESPONSE	M2	2	07	G3	release
235.563	n/a	RESPONSE	M2	2	23	B4	press
235.574	n/a	RESPONSE	M2	2	00	C3	press
235.576	n/a	RESPONSE	M2	2	07	G3	press
236.076	n/a	RESPONSE	M2	2	23	B4	release
236.079	n/a	RESPONSE	M2	2	00	C3	release
236.179	n/a	RESPONSE	M2	2	07	G3	release
236.39	n/a	RESPONSE	M2	2	24	C5	press
236.402	n/a	RESPONSE	M2	2	00	C3	press
236.404	n/a	RESPONSE	M2	2	07	G3	press
237.074	n/a	RESPONSE	M2	2	00	C3	release
237.078	n/a	RESPONSE	M2	2	07	G3	release
237.129	n/a	RESPONSE	M2	2	24	C5	release
237.919	n/a	RESPONSE	M2	2	21	A4	press
237.937	n/a	RESPONSE	M2	2	00	C3	press
237.942	n/a	RESPONSE	M2	2	07	G3	press
238.465	n/a	RESPONSE	M2	2	17	F4	press
238.532	n/a	RESPONSE	M2	2	21	A4	release
238.753	n/a	RESPONSE	M2	2	00	C3	release
238.795	n/a	RESPONSE	M2	2	07	G3	release
238.85	n/a	RESPONSE	M2	2	17	F4	release
238.938	n/a	RESPONSE	M2	2	00	C3	press
238.942	n/a	RESPONSE	M2	2	07	G3	press
238.946	n/a	RESPONSE	M2	2	17	F4	press
239.334	7.758	FIXCROSS	n/a	n/a	n/a	n/a	n/a
239.414	n/a	RESPONSE	M2	2	16	E4	press
239.555	n/a	RESPONSE	M2	2	00	C3	release
239.567	n/a	RESPONSE	M2	2	07	G3	release
239.584	n/a	RESPONSE	M2	2	17	F4	release
239.985	n/a	RESPONSE	M2	2	16	E4	release
247.092	6.317	CUE_LISTEN	M2	1	n/a	n/a	n/a
253.409	7.758	FIXCROSS	n/a	n/a	n/a	n/a	n/a
261.167	6.325	CUE_PLAYBACK_BOTH_HANDS	M2	1	n/a	n/a	n/a
261.859	n/a	RESPONSE	M2	1	12	C4	press
261.861	n/a	RESPONSE	M2	1	07	G3	press
261.864	n/a	RESPONSE	M2	1	00	C3	press
262.404	n/a	RESPONSE	M2	1	14	D4	press
262.484	n/a	RESPONSE	M2	1	12	C4	release
262.555	n/a	RESPONSE	M2	1	00	C3	release
262.586	n/a	RESPONSE	M2	1	07	G3	release
262.908	n/a	RESPONSE	M2	1	16	E4	press
262.91	n/a	RESPONSE	M2	1	00	C3	press
262.92	n/a	RESPONSE	M2	1	07	G3	press
262.982	n/a	RESPONSE	M2	1	14	D4	release
263.423	n/a	RESPONSE	M2	1	17	F4	press
263.524	n/a	RESPONSE	M2	1	16	E4	release
263.555	n/a	RESPONSE	M2	1	00	C3	release
263.586	n/a	RESPONSE	M2	1	07	G3	release
263.858	n/a	RESPONSE	M2	1	17	F4	release
264.209	n/a	RESPONSE	M2	1	12	C4	press
264.212	n/a	RESPONSE	M2	1	07	G3	press
264.222	n/a	RESPONSE	M2	1	00	C3	press
264.683	n/a	RESPONSE	M2	1	14	D4	press
264.737	n/a	RESPONSE	M2	1	12	C4	release
264.795	n/a	RESPONSE	M2	1	00	C3	release
264.847	n/a	RESPONSE	M2	1	07	G3	release
265.148	n/a	RESPONSE	M2	1	00	C3	press
265.16	n/a	RESPONSE	M2	1	16	E4	press
265.163	n/a	RESPONSE	M2	1	07	G3	press
265.252	n/a	RESPONSE	M2	1	14	D4	release
265.653	n/a	RESPONSE	M2	1	14	D4	press
265.714	n/a	RESPONSE	M2	1	16	E4	release
265.735	n/a	RESPONSE	M2	1	00	C3	release
265.738	n/a	RESPONSE	M2	1	07	G3	release
266.069	n/a	RESPONSE	M2	1	00	C3	press
266.072	n/a	RESPONSE	M2	1	07	G3	press
266.11	n/a	RESPONSE	M2	1	16	E4	press
266.232	n/a	RESPONSE	M2	1	14	D4	release
266.563	n/a	RESPONSE	M2	1	17	F4	press
266.644	n/a	RESPONSE	M2	1	16	E4	release
266.705	n/a	RESPONSE	M2	1	00	C3	release
266.709	n/a	RESPONSE	M2	1	07	G3	release
267.048	n/a	RESPONSE	M2	1	19	G4	press
267.059	n/a	RESPONSE	M2	1	07	G3	press
267.062	n/a	RESPONSE	M2	1	00	C3	press
267.122	n/a	RESPONSE	M2	1	17	F4	release
267.492	7.758	FIXCROSS	n/a	n/a	n/a	n/a	n/a
267.705	n/a	RESPONSE	M2	1	00	C3	release
267.804	n/a	RESPONSE	M2	1	19	G4	release
267.909	n/a	RESPONSE	M2	1	07	G3	release
275.25	6.317	CUE_LISTEN	M2	2	n/a	n/a	n/a
281.567	7.758	FIXCROSS	n/a	n/a	n/a	n/a	n/a
289.325	6.317	CUE_PLAYBACK_BOTH_HANDS	M2	2	n/a	n/a	n/a
290.059	n/a	RESPONSE	M2	2	07	G3	press
290.069	n/a	RESPONSE	M2	2	16	E4	press
290.076	n/a	RESPONSE	M2	2	00	C3	press
290.548	n/a	RESPONSE	M2	2	19	G4	press
290.625	n/a	RESPONSE	M2	2	16	E4	release
290.743	n/a	RESPONSE	M2	2	00	C3	release
290.882	n/a	RESPONSE	M2	2	19	G4	release
291.023	n/a	RESPONSE	M2	2	00	C3	press
291.034	n/a	RESPONSE	M2	2	19	G4	press
291.528	n/a	RESPONSE	M2	2	17	F4	press
291.679	n/a	RESPONSE	M2	2	19	G4	release
291.718	n/a	RESPONSE	M2	2	00	C3	release
291.779	n/a	RESPONSE	M2	2	07	G3	release
292.03	n/a	RESPONSE	M2	2	16	E4	press
292.034	n/a	RESPONSE	M2	2	00	C3	press
292.043	n/a	RESPONSE	M2	2	07	G3	press
292.124	n/a	RESPONSE	M2	2	17	F4	release
292.565	n/a	RESPONSE	M2	2	14	D4	press
292.669	n/a	RESPONSE	M2	2	16	E4	release
292.688	n/a	RESPONSE	M2	2	00	C3	release
292.719	n/a	RESPONSE	M2	2	07	G3	release
293.07	n/a	RESPONSE	M2	2	12	C4	press
293.073	n/a	RESPONSE	M2	2	07	G3	press
293.083	n/a	RESPONSE	M2	2	00	C3	press
293.244	n/a	RESPONSE	M2	2	14	D4	release
293.935	n/a	RESPONSE	M2	2	00	C3	release
294.016	n/a	RESPONSE	M2	2	12	C4	release
295.468	n/a	RESPONSE	M2	2	07	G3	release
295.642	7.758	FIXCROSS	n/a	n/a	n/a	n/a	n/a
303.4	6.325	CUE_LISTEN	M3	1	n/a	n/a	n/a
309.725	7.758	FIXCROSS	n/a	n/a	n/a	n/a	n/a
317.484	6.317	CUE_PLAYBACK_RIGHT_HAND	M3	1	n/a	n/a	n/a
318.163	n/a	RESPONSE	M3	1	12	C4	press
318.729	n/a	RESPONSE	M3	1	14	D4	press
318.818	n/a	RESPONSE	M3	1	12	C4	release
319.259	n/a	RESPONSE	M3	1	16	E4	press
319.322	n/a	RESPONSE	M3	1	14	D4	release
319.825	n/a	RESPONSE	M3	1	12	C4	press
319.846	n/a	RESPONSE	M3	1	16	E4	release
320.182	n/a	RESPONSE	M3	1	12	C4	release
320.404	n/a	RESPONSE	M3	1	12	C4	press
320.98	n/a	RESPONSE	M3	1	14	D4	press
321.08	n/a	RESPONSE	M3	1	12	C4	release
321.583	n/a	RESPONSE	M3	1	16	E4	press
321.662	n/a	RESPONSE	M3	1	14	D4	release
322.143	n/a	RESPONSE	M3	1	12	C4	press
322.194	n/a	RESPONSE	M3	1	16	E4	release
322.858	n/a	RESPONSE	M3	1	12	C4	release
323.8	7.758	FIXCROSS	n/a	n/a	n/a	n/a	n/a
331.559	6.317	CUE_LISTEN	M3	2	n/a	n/a	n/a
337.875	7.758	FIXCROSS	n/a	n/a	n/a	n/a	n/a
345.634	6.325	CUE_PLAYBACK_RIGHT_HAND	M3	2	n/a	n/a	n/a
346.123	n/a	RESPONSE	M3	2	16	E4	press
346.604	n/a	RESPONSE	M3	2	17	F4	press
346.655	n/a	RESPONSE	M3	2	16	E4	release
347.126	n/a	RESPONSE	M3	2	19	G4	press
347.18	n/a	RESPONSE	M3	2	17	F4	release
347.857	n/a	RESPONSE	M3	2	19	G4	release
348.076	n/a	RESPONSE	M3	2	16	E4	press
348.545	n/a	RESPONSE	M3	2	17	F4	press
348.61	n/a	RESPONSE	M3	2	16	E4	release
349.044	n/a	RESPONSE	M3	2	19	G4	press
349.125	n/a	RESPONSE	M3	2	17	F4	release
349.969	n/a	RESPONSE	M3	2	19	G4	release
351.959	7.758	FIXCROSS	n/a	n/a	n/a	n/a	n/a
359.717	6.317	CUE_LISTEN	M3	1	n/a	n/a	n/a
366.034	7.758	FIXCROSS	n/a	n/a	n/a	n/a	n/a
373.792	6.317	CUE_PLAYBACK_RIGHT_HAND	M3	1	n/a	n/a	n/a
374.275	n/a	RESPONSE	M3	1	19	G4	press
374.657	n/a	RESPONSE	M3	1	21	A4	press
374.748	n/a	RESPONSE	M3	1	19	G4	release
374.96	n/a	RESPONSE	M3	1	19	G4	press
375.08	n/a	RESPONSE	M3	1	21	A4	release
375.332	n/a	RESPONSE	M3	1	17	F4	press
375.493	n/a	RESPONSE	M3	1	19	G4	release
375.734	n/a	RESPONSE	M3	1	16	E4	press
375.885	n/a	RESPONSE	M3	1	17	F4	release
376.469	n/a	RESPONSE	M3	1	12	C4	press
376.628	n/a	RESPONSE	M3	1	16	E4	release
376.789	n/a	RESPONSE	M3	1	12	C4	release
377.642	n/a	RESPONSE	M3	1	17	F4	press
377.928	n/a	RESPONSE	M3	1	17	F4	release
378.216	n/a	RESPONSE	M3	1	19	G4	press
378.562	n/a	RESPONSE	M3	1	21	A4	press
378.688	n/a	RESPONSE	M3	1	19	G4	release
378.923	n/a	RESPONSE	M3	1	19	G4	press
379.016	n/a	RESPONSE	M3	1	21	A4	release
379.274	n/a	RESPONSE	M3	1	17	F4	press
379.512	n/a	RESPONSE	M3	1	19	G4	release
379.676	n/a	RESPONSE	M3	1	16	E4	press
379.812	n/a	RESPONSE	M3	1	17	F4	release
380.109	7.758	FIXCROSS	n/a	n/a	n/a	n/a	n/a
380.419	n/a	RESPONSE	M3	1	12	C4	press
380.66	n/a	RESPONSE	M3	1	16	E4	release
380.765	n/a	RESPONSE	M3	1	12	C4	release
387.867	6.325	CUE_LISTEN	M3	2	n/a	n/a	n/a
394.192	7.758	FIXCROSS	n/a	n/a	n/a	n/a	n/a
401.951	6.317	CUE_PLAYBACK_RIGHT_HAND	M3	2	n/a	n/a	n/a
402.399	n/a	RESPONSE	M3	2	12	C4	press
402.913	n/a	RESPONSE	M3	2	05	F3	press
403.082	n/a	RESPONSE	M3	2	12	C4	release
403.383	n/a	RESPONSE	M3	2	05	F3	release
404.034	n/a	RESPONSE	M3	2	07	G3	press
404.458	n/a	RESPONSE	M3	2	07	G3	release
404.656	n/a	RESPONSE	M3	2	12	C4	press
405.298	n/a	RESPONSE	M3	2	12	C4	release
405.609	n/a	RESPONSE	M3	2	12	C4	press
406.16	n/a	RESPONSE	M3	2	07	G3	press
406.404	n/a	RESPONSE	M3	2	12	C4	release
406.653	n/a	RESPONSE	M3	2	07	G3	release
406.687	n/a	RESPONSE	M3	2	12	C4	press
407.433	n/a	RESPONSE	M3	2	12	C4	release
408.267	7.758	FIXCROSS	n/a	n/a	n/a	n/a	n/a
416.026	6.317	CUE_LISTEN	M1	1	n/a	n/a	n/a
422.342	7.758	FIXCROSS	n/a	n/a	n/a	n/a	n/a
430.101	6.325	CUE_PLAYBACK_RIGHT_HAND	M1	1	n/a	n/a	n/a
430.599	n/a	RESPONSE	M1	1	19	G4	press
431.15	n/a	RESPONSE	M1	1	16	E4	press
431.212	n/a	RESPONSE	M1	1	19	G4	release
431.603	n/a	RESPONSE	M1	1	16	E4	release
431.745	n/a	RESPONSE	M1	1	16	E4	press
432.326	n/a	RESPONSE	M1	1	17	F4	press
432.386	n/a	RESPONSE	M1	1	16	E4	release
432.918	n/a	RESPONSE	M1	1	14	D4	press
432.962	n/a	RESPONSE	M1	1	17	F4	release
433.42	n/a	RESPONSE	M1	1	14	D4	release
433.492	n/a	RESPONSE	M1	1	14	D4	press
433.853	n/a	RESPONSE	M1	1	14	D4	release
434.044	n/a	RESPONSE	M1	1	12	C4	press
434.387	n/a	RESPONSE	M1	1	14	D4	press
434.558	n/a	RESPONSE	M1	1	12	C4	release
434.888	n/a	RESPONSE	M1	1	14	D4	release
435.049	n/a	RESPONSE	M1	1	12	C4	press
435.43	n/a	RESPONSE	M1	1	16	E4	press
435.632	n/a	RESPONSE	M1	1	12	C4	release
435.794	n/a	RESPONSE	M1	1	19	G4	press
435.884	n/a	RESPONSE	M1	1	16	E4	release
436.426	7.758	FIXCROSS	n/a	n/a	n/a	n/a	n/a
436.605	n/a	RESPONSE	M1	1	19	G4	release
444.184	6.317	CUE_LISTEN	M1	2	n/a	n/a	n/a
450.501	7.758	FIXCROSS	n/a	n/a	n/a	n/a	n/a
458.259	6.317	CUE_PLAYBACK_RIGHT_HAND	M1	2	n/a	n/a	n/a
458.74	n/a	RESPONSE	M1	2	19	G4	press
459.255	n/a	RESPONSE	M1	2	16	E4	press
459.323	n/a	RESPONSE	M1	2	19	G4	release
459.692	n/a	RESPONSE	M1	2	16	E4	release
459.814	n/a	RESPONSE	M1	2	16	E4	press
460.363	n/a	RESPONSE	M1	2	17	F4	press
460.442	n/a	RESPONSE	M1	2	16	E4	release
460.937	n/a	RESPONSE	M1	2	14	D4	press
460.988	n/a	RESPONSE	M1	2	17	F4	release
461.399	n/a	RESPONSE	M1	2	14	D4	release
461.51	n/a	RESPONSE	M1	2	14	D4	press
461.884	n/a	RESPONSE	M1	2	14	D4	release
462.065	n/a	RESPONSE	M1	2	12	C4	press
462.384	n/a	RESPONSE	M1	2	16	E4	press
462.475	n/a	RESPONSE	M1	2	12	C4	release
462.696	n/a	RESPONSE	M1	2	12	C4	press
462.74	n/a	RESPONSE	M1	2	16	E4	release
463.46	n/a	RESPONSE	M1	2	12	C4	release
464.576	7.758	FIXCROSS	n/a	n/a	n/a	n/a	n/a
472.334	6.325	CUE_LISTEN	M2	1	n/a	n/a	n/a
478.659	7.767	FIXCROSS	n/a	n/a	n/a	n/a	n/a
486.426	6.308	CUE_PLAYBACK_BOTH_HANDS	M2	1	n/a	n/a	n/a
486.923	n/a	RESPONSE	M2	1	24	C5	press
487.432	n/a	RESPONSE	M2	1	24	C5	release
488.016	n/a	RESPONSE	M2	1	24	C5	press
488.182	n/a	RESPONSE	M2	1	24	C5	release
489.436	n/a	RESPONSE	M2	1	00	C3	press
489.444	n/a	RESPONSE	M2	1	24	C5	press
490.452	n/a	RESPONSE	M2	1	19	G4	press
490.639	n/a	RESPONSE	M2	1	24	C5	release
490.82	n/a	RESPONSE	M2	1	19	G4	release
491.132	n/a	RESPONSE	M2	1	07	G3	press
491.143	n/a	RESPONSE	M2	1	19	G4	press
491.734	n/a	RESPONSE	M2	1	17	F4	press
491.835	n/a	RESPONSE	M2	1	19	G4	release
492.068	n/a	RESPONSE	M2	1	07	G3	release
492.288	n/a	RESPONSE	M2	1	07	G3	press
492.299	n/a	RESPONSE	M2	1	16	E4	press
492.34	n/a	RESPONSE	M2	1	17	F4	release
492.734	7.759	FIXCROSS	n/a	n/a	n/a	n/a	n/a
492.852	n/a	RESPONSE	M2	1	17	F4	press
492.983	n/a	RESPONSE	M2	1	16	E4	release
493.104	n/a	RESPONSE	M2	1	00	C3	release
493.116	n/a	RESPONSE	M2	1	07	G3	release
493.306	n/a	RESPONSE	M2	1	19	G4	press
493.32	n/a	RESPONSE	M2	1	00	C3	press
493.329	n/a	RESPONSE	M2	1	07	G3	press
493.432	n/a	RESPONSE	M2	1	17	F4	release
493.893	n/a	RESPONSE	M2	1	19	G4	release
493.934	n/a	RESPONSE	M2	1	00	C3	release
499.73	n/a	RESPONSE	M2	1	07	G3	release
500.492	6.325	CUE_LISTEN	M2	2	n/a	n/a	n/a
506.817	7.758	FIXCROSS	n/a	n/a	n/a	n/a	n/a
514.576	6.317	CUE_PLAYBACK_BOTH_HANDS	M2	2	n/a	n/a	n/a
515.106	n/a	RESPONSE	M2	2	24	C5	press
515.115	n/a	RESPONSE	M2	2	00	C3	press
515.126	n/a	RESPONSE	M2	2	07	G3	press
515.588	n/a	RESPONSE	M2	2	24	C5	release
515.599	n/a	RESPONSE	M2	2	07	G3	release
515.65	n/a	RESPONSE	M2	2	00	C3	release
516.422	n/a	RESPONSE	M2	2	24	C5	press
516.424	n/a	RESPONSE	M2	2	00	C3	press
516.444	n/a	RESPONSE	M2	2	07	G3	press
517.055	n/a	RESPONSE	M2	2	00	C3	release
517.106	n/a	RESPONSE	M2	2	07	G3	release
517.118	n/a	RESPONSE	M2	2	24	C5	release
518.042	n/a	RESPONSE	M2	2	24	C5	press
518.048	n/a	RESPONSE	M2	2	00	C3	press
518.073	n/a	RESPONSE	M2	2	07	G3	press
518.604	n/a	RESPONSE	M2	2	19	G4	press
518.689	n/a	RESPONSE	M2	2	24	C5	release
518.862	n/a	RESPONSE	M2	2	00	C3	release
518.908	n/a	RESPONSE	M2	2	07	G3	release
518.91	n/a	RESPONSE	M2	2	19	G4	release
519.047	n/a	RESPONSE	M2	2	00	C3	press
519.05	n/a	RESPONSE	M2	2	19	G4	press
519.074	n/a	RESPONSE	M2	2	07	G3	press
519.552	n/a	RESPONSE	M2	2	17	F4	press
519.641	n/a	RESPONSE	M2	2	07	G3	release
519.653	n/a	RESPONSE	M2	2	00	C3	release
519.695	n/a	RESPONSE	M2	2	19	G4	release
520.016	n/a	RESPONSE	M2	2	00	C3	press
520.021	n/a	RESPONSE	M2	2	07	G3	press
520.025	n/a	RESPONSE	M2	2	16	E4	press
520.099	n/a	RESPONSE	M2	2	17	F4	release
520.482	n/a	RESPONSE	M2	2	14	D4	press
520.572	n/a	RESPONSE	M2	2	16	E4	release
520.679	n/a	RESPONSE	M2	2	07	G3	release
520.703	n/a	RESPONSE	M2	2	00	C3	release
520.892	7.759	FIXCROSS	n/a	n/a	n/a	n/a	n/a
520.974	n/a	RESPONSE	M2	2	00	C3	press
520.976	n/a	RESPONSE	M2	2	07	G3	press
520.986	n/a	RESPONSE	M2	2	12	C4	press
521.078	n/a	RESPONSE	M2	2	12	C4	release
521.609	n/a	RESPONSE	M2	2	00	C3	release
521.623	n/a	RESPONSE	M2	2	14	D4	release
524.963	n/a	RESPONSE	M2	2	07	G3	release
528.651	6.317	CUE_LISTEN	M2	1	n/a	n/a	n/a
534.967	7.759	FIXCROSS	n/a	n/a	n/a	n/a	n/a
542.726	6.325	CUE_PLAYBACK_BOTH_HANDS	M2	1	n/a	n/a	n/a
543.239	n/a	RESPONSE	M2	1	12	C4	press
543.26	n/a	RESPONSE	M2	1	07	G3	press
543.272	n/a	RESPONSE	M2	1	00	C3	press
543.723	n/a	RESPONSE	M2	1	14	D4	press
543.804	n/a	RESPONSE	M2	1	12	C4	release
543.955	n/a	RESPONSE	M2	1	00	C3	release
544.006	n/a	RESPONSE	M2	1	07	G3	release
544.228	n/a	RESPONSE	M2	1	00	C3	press
544.23	n/a	RESPONSE	M2	1	16	E4	press
544.243	n/a	RESPONSE	M2	1	07	G3	press
544.332	n/a	RESPONSE	M2	1	14	D4	release
544.724	n/a	RESPONSE	M2	1	14	D4	press
544.805	n/a	RESPONSE	M2	1	16	E4	release
544.858	n/a	RESPONSE	M2	1	00	C3	release
544.866	n/a	RESPONSE	M2	1	07	G3	release
545.178	n/a	RESPONSE	M2	1	16	E4	press
545.189	n/a	RESPONSE	M2	1	00	C3	press
545.193	n/a	RESPONSE	M2	1	07	G3	press
545.282	n/a	RESPONSE	M2	1	14	D4	release
545.673	n/a	RESPONSE	M2	1	17	F4	press
545.784	n/a	RESPONSE	M2	1	16	E4	release
545.815	n/a	RESPONSE	M2	1	00	C3	release
545.826	n/a	RESPONSE	M2	1	07	G3	release
546.158	n/a	RESPONSE	M2	1	19	G4	press
546.17	n/a	RESPONSE	M2	1	00	C3	press
546.18	n/a	RESPONSE	M2	1	07	G3	press
546.222	n/a	RESPONSE	M2	1	17	F4	release
546.983	n/a	RESPONSE	M2	1	00	C3	release
547.114	n/a	RESPONSE	M2	1	19	G4	release
548.282	n/a	RESPONSE	M2	1	07	G3	release
549.051	7.758	FIXCROSS	n/a	n/a	n/a	n/a	n/a
556.809	6.317	CUE_LISTEN	M2	2	n/a	n/a	n/a
563.126	7.759	FIXCROSS	n/a	n/a	n/a	n/a	n/a
570.884	6.317	CUE_PLAYBACK_BOTH_HANDS	M2	2	n/a	n/a	n/a
571.392	n/a	RESPONSE	M2	2	16	E4	press
571.413	n/a	RESPONSE	M2	2	07	G3	press
571.424	n/a	RESPONSE	M2	2	00	C3	press
571.898	n/a	RESPONSE	M2	2	19	G4	press
571.986	n/a	RESPONSE	M2	2	16	E4	release
572.108	n/a	RESPONSE	M2	2	00	C3	release
572.159	n/a	RESPONSE	M2	2	07	G3	release
572.193	n/a	RESPONSE	M2	2	19	G4	release
572.372	n/a	RESPONSE	M2	2	19	G4	press
572.374	n/a	RESPONSE	M2	2	00	C3	press
572.384	n/a	RESPONSE	M2	2	07	G3	press
572.905	n/a	RESPONSE	M2	2	17	F4	press
572.966	n/a	RESPONSE	M2	2	16	E4	press
573.038	n/a	RESPONSE	M2	2	19	G4	release
573.079	n/a	RESPONSE	M2	2	16	E4	release
573.12	n/a	RESPONSE	M2	2	07	G3	release
573.123	n/a	RESPONSE	M2	2	00	C3	release
573.533	n/a	RESPONSE	M2	2	16	E4	press
573.564	n/a	RESPONSE	M2	2	00	C3	press
573.585	n/a	RESPONSE	M2	2	07	G3	press
573.606	n/a	RESPONSE	M2	2	17	F4	release
574.088	n/a	RESPONSE	M2	2	14	D4	press
574.2	n/a	RESPONSE	M2	2	16	E4	release
574.203	n/a	RESPONSE	M2	2	07	G3	release
574.232	n/a	RESPONSE	M2	2	00	C3	release
574.613	n/a	RESPONSE	M2	2	12	C4	press
574.644	n/a	RESPONSE	M2	2	00	C3	press
574.665	n/a	RESPONSE	M2	2	07	G3	press
574.686	n/a	RESPONSE	M2	2	14	D4	release
575.508	n/a	RESPONSE	M2	2	00	C3	release
575.6	n/a	RESPONSE	M2	2	12	C4	release
577.01	n/a	RESPONSE	M2	2	07	G3	release
577.201	7.758	FIXCROSS	n/a	n/a	n/a	n/a	n/a
584.959	6.325	CUE_LISTEN	M1	1	n/a	n/a	n/a
591.284	7.758	FIXCROSS	n/a	n/a	n/a	n/a	n/a
599.043	6.317	CUE_PLAYBACK_RIGHT_HAND	M1	1	n/a	n/a	n/a
599.59	n/a	RESPONSE	M1	1	19	G4	press
600.109	n/a	RESPONSE	M1	1	16	E4	press
600.153	n/a	RESPONSE	M1	1	19	G4	release
600.53	n/a	RESPONSE	M1	1	16	E4	release
600.659	n/a	RESPONSE	M1	1	16	E4	press
601.169	n/a	RESPONSE	M1	1	17	F4	press
601.208	n/a	RESPONSE	M1	1	16	E4	release
601.689	n/a	RESPONSE	M1	1	14	D4	press
601.72	n/a	RESPONSE	M1	1	17	F4	release
602.142	n/a	RESPONSE	M1	1	14	D4	release
602.233	n/a	RESPONSE	M1	1	14	D4	press
602.615	n/a	RESPONSE	M1	1	14	D4	release
602.748	n/a	RESPONSE	M1	1	12	C4	press
603.067	n/a	RESPONSE	M1	1	16	E4	press
603.178	n/a	RESPONSE	M1	1	12	C4	release
603.399	n/a	RESPONSE	M1	1	19	G4	press
603.47	n/a	RESPONSE	M1	1	16	E4	release
604.324	n/a	RESPONSE	M1	1	19	G4	release
605.359	7.758	FIXCROSS	n/a	n/a	n/a	n/a	n/a
613.118	6.317	CUE_LISTEN	M1	2	n/a	n/a	n/a
619.434	7.758	FIXCROSS	n/a	n/a	n/a	n/a	n/a
627.193	6.325	CUE_PLAYBACK_RIGHT_HAND	M1	2	n/a	n/a	n/a
627.975	n/a	RESPONSE	M1	2	19	G4	press
628.403	n/a	RESPONSE	M1	2	19	G4	release
628.575	n/a	RESPONSE	M1	2	19	G4	press
629.113	n/a	RESPONSE	M1	2	16	E4	press
629.235	n/a	RESPONSE	M1	2	19	G4	release
629.524	n/a	RESPONSE	M1	2	16	E4	release
629.63	n/a	RESPONSE	M1	2	16	E4	press
630.119	n/a	RESPONSE	M1	2	17	F4	press
630.196	n/a	RESPONSE	M1	2	16	E4	release
630.64	n/a	RESPONSE	M1	2	14	D4	press
630.673	n/a	RESPONSE	M1	2	17	F4	release
631.09	n/a	RESPONSE	M1	2	14	D4	release
631.172	n/a	RESPONSE	M1	2	14	D4	press
631.474	n/a	RESPONSE	M1	2	14	D4	release
631.674	n/a	RESPONSE	M1	2	12	C4	press
631.935	n/a	RESPONSE	M1	2	16	E4	press
632.036	n/a	RESPONSE	M1	2	12	C4	release
632.208	n/a	RESPONSE	M1	2	12	C4	press
632.259	n/a	RESPONSE	M1	2	16	E4	release
633.02	n/a	RESPONSE	M1	2	12	C4	release
633.518	7.758	FIXCROSS	n/a	n/a	n/a	n/a	n/a
641.276	6.317	CUE_LISTEN	M3	1	n/a	n/a	n/a
647.593	7.758	FIXCROSS	n/a	n/a	n/a	n/a	n/a
655.351	6.317	CUE_PLAYBACK_RIGHT_HAND	M3	1	n/a	n/a	n/a
655.915	n/a	RESPONSE	M3	1	12	C4	press
656.456	n/a	RESPONSE	M3	1	14	D4	press
656.568	n/a	RESPONSE	M3	1	12	C4	release
656.979	n/a	RESPONSE	M3	1	16	E4	press
657.09	n/a	RESPONSE	M3	1	14	D4	release
657.51	n/a	RESPONSE	M3	1	12	C4	press
657.579	n/a	RESPONSE	M3	1	16	E4	release
657.885	n/a	RESPONSE	M3	1	12	C4	release
658.058	n/a	RESPONSE	M3	1	12	C4	press
658.642	n/a	RESPONSE	M3	1	14	D4	press
658.78	n/a	RESPONSE	M3	1	12	C4	release
659.19	n/a	RESPONSE	M3	1	16	E4	press
659.285	n/a	RESPONSE	M3	1	14	D4	release
659.779	n/a	RESPONSE	M3	1	12	C4	press
659.825	n/a	RESPONSE	M3	1	16	E4	release
660.484	n/a	RESPONSE	M3	1	12	C4	release
661.668	7.758	FIXCROSS	n/a	n/a	n/a	n/a	n/a
669.426	6.325	CUE_LISTEN	M3	2	n/a	n/a	n/a
675.751	7.758	FIXCROSS	n/a	n/a	n/a	n/a	n/a
683.51	6.317	CUE_PLAYBACK_RIGHT_HAND	M3	2	n/a	n/a	n/a
684.078	n/a	RESPONSE	M3	2	16	E4	press
684.599	n/a	RESPONSE	M3	2	17	F4	press
684.63	n/a	RESPONSE	M3	2	16	E4	release
685.124	n/a	RESPONSE	M3	2	19	G4	press
685.203	n/a	RESPONSE	M3	2	17	F4	release
686.085	n/a	RESPONSE	M3	2	16	E4	press
686.165	n/a	RESPONSE	M3	2	19	G4	release
686.596	n/a	RESPONSE	M3	2	17	F4	press
686.7	n/a	RESPONSE	M3	2	16	E4	release
687.109	n/a	RESPONSE	M3	2	19	G4	press
687.18	n/a	RESPONSE	M3	2	17	F4	release
688.158	n/a	RESPONSE	M3	2	19	G4	release
689.826	7.758	FIXCROSS	n/a	n/a	n/a	n/a	n/a
697.584	6.325	CUE_LISTEN	M3	1	n/a	n/a	n/a
703.909	7.758	FIXCROSS	n/a	n/a	n/a	n/a	n/a
711.668	6.317	CUE_PLAYBACK_RIGHT_HAND	M3	1	n/a	n/a	n/a
712.133	n/a	RESPONSE	M3	1	19	G4	press
712.492	n/a	RESPONSE	M3	1	21	A4	press
712.603	n/a	RESPONSE	M3	1	19	G4	release
712.774	n/a	RESPONSE	M3	1	19	G4	press
712.905	n/a	RESPONSE	M3	1	21	A4	release
713.126	n/a	RESPONSE	M3	1	17	F4	press
713.309	n/a	RESPONSE	M3	1	19	G4	release
713.502	n/a	RESPONSE	M3	1	16	E4	press
713.613	n/a	RESPONSE	M3	1	17	F4	release
714.833	n/a	RESPONSE	M3	1	12	C4	press
714.953	n/a	RESPONSE	M3	1	16	E4	release
715.175	n/a	RESPONSE	M3	1	12	C4	release
715.695	n/a	RESPONSE	M3	1	19	G4	press
716.096	n/a	RESPONSE	M3	1	21	A4	press
716.099	n/a	RESPONSE	M3	1	23	B4	press
716.179	n/a	RESPONSE	M3	1	19	G4	release
716.4	n/a	RESPONSE	M3	1	23	B4	release
716.722	n/a	RESPONSE	M3	1	19	G4	press
716.784	n/a	RESPONSE	M3	1	21	A4	release
717.034	n/a	RESPONSE	M3	1	17	F4	press
717.212	n/a	RESPONSE	M3	1	19	G4	release
717.395	n/a	RESPONSE	M3	1	16	E4	press
717.523	n/a	RESPONSE	M3	1	17	F4	release
717.984	7.758	FIXCROSS	n/a	n/a	n/a	n/a	n/a
718.194	n/a	RESPONSE	M3	1	12	C4	press
718.325	n/a	RESPONSE	M3	1	16	E4	release
718.664	n/a	RESPONSE	M3	1	12	C4	release
725.743	6.317	CUE_LISTEN	M3	2	n/a	n/a	n/a
732.06	7.758	FIXCROSS	n/a	n/a	n/a	n/a	n/a
739.818	6.325	CUE_PLAYBACK_RIGHT_HAND	M3	2	n/a	n/a	n/a
740.385	n/a	RESPONSE	M3	2	12	C4	press
740.945	n/a	RESPONSE	M3	2	07	G3	press
741.006	n/a	RESPONSE	M3	2	12	C4	release
741.518	n/a	RESPONSE	M3	2	07	G3	release
741.529	n/a	RESPONSE	M3	2	12	C4	press
742.29	n/a	RESPONSE	M3	2	12	C4	release
742.602	n/a	RESPONSE	M3	2	12	C4	press
743.184	n/a	RESPONSE	M3	2	07	G3	press
743.205	n/a	RESPONSE	M3	2	12	C4	release
743.715	n/a	RESPONSE	M3	2	12	C4	press
743.769	n/a	RESPONSE	M3	2	07	G3	release
744.488	n/a	RESPONSE	M3	2	12	C4	release
746.143	7.758	FIXCROSS	n/a	n/a	n/a	n/a	n/a
753.901	6.317	CUE_LISTEN	M1	1	n/a	n/a	n/a
760.218	7.758	FIXCROSS	n/a	n/a	n/a	n/a	n/a
767.976	6.317	CUE_PLAYBACK_BOTH_HANDS	M1	1	n/a	n/a	n/a
768.424	n/a	RESPONSE	M1	1	19	G4	press
768.458	n/a	RESPONSE	M1	1	07	G3	press
768.46	n/a	RESPONSE	M1	1	04	E3	press
768.483	n/a	RESPONSE	M1	1	00	C3	press
769.07	n/a	RESPONSE	M1	1	16	E4	press
769.088	n/a	RESPONSE	M1	1	19	G4	release
769.635	n/a	RESPONSE	M1	1	16	E4	release
769.7	n/a	RESPONSE	M1	1	16	E4	press
770.068	n/a	RESPONSE	M1	1	04	E3	release
770.123	n/a	RESPONSE	M1	1	16	E4	release
770.169	n/a	RESPONSE	M1	1	00	C3	release
770.375	n/a	RESPONSE	M1	1	05	F3	press
770.398	n/a	RESPONSE	M1	1	17	F4	press
770.4	n/a	RESPONSE	M1	1	02	D3	press
771.006	n/a	RESPONSE	M1	1	14	D4	press
771.06	n/a	RESPONSE	M1	1	17	F4	release
771.47	n/a	RESPONSE	M1	1	14	D4	release
771.63	n/a	RESPONSE	M1	1	14	D4	press
771.912	n/a	RESPONSE	M1	1	14	D4	release
771.923	n/a	RESPONSE	M1	1	02	D3	release
771.974	n/a	RESPONSE	M1	1	05	F3	release
772.215	n/a	RESPONSE	M1	1	04	E3	press
772.256	n/a	RESPONSE	M1	1	12	C4	press
772.308	n/a	RESPONSE	M1	1	00	C3	press
772.609	n/a	RESPONSE	M1	1	16	E4	press
772.93	n/a	RESPONSE	M1	1	19	G4	press
772.953	n/a	RESPONSE	M1	1	12	C4	release
773.033	n/a	RESPONSE	M1	1	16	E4	release
774.014	n/a	RESPONSE	M1	1	04	E3	release
774.016	n/a	RESPONSE	M1	1	19	G4	release
774.266	n/a	RESPONSE	M1	1	00	C3	release
774.293	7.758	FIXCROSS	n/a	n/a	n/a	n/a	n/a
774.869	n/a	RESPONSE	M1	1	07	G3	release
782.051	6.333	CUE_LISTEN	M1	2	n/a	n/a	n/a
788.385	7.758	FIXCROSS	n/a	n/a	n/a	n/a	n/a
796.143	6.308	CUE_PLAYBACK_BOTH_HANDS	M1	2	n/a	n/a	n/a
796.644	n/a	RESPONSE	M1	2	19	G4	press
796.668	n/a	RESPONSE	M1	2	07	G3	press
796.67	n/a	RESPONSE	M1	2	04	E3	press
796.689	n/a	RESPONSE	M1	2	00	C3	press
797.272	n/a	RESPONSE	M1	2	16	E4	press
797.339	n/a	RESPONSE	M1	2	19	G4	release
797.75	n/a	RESPONSE	M1	2	16	E4	release
797.88	n/a	RESPONSE	M1	2	16	E4	press
798.19	n/a	RESPONSE	M1	2	16	E4	release
798.193	n/a	RESPONSE	M1	2	04	E3	release
798.195	n/a	RESPONSE	M1	2	00	C3	release
798.442	n/a	RESPONSE	M1	2	05	F3	press
798.444	n/a	RESPONSE	M1	2	02	D3	press
798.453	n/a	RESPONSE	M1	2	17	F4	press
799.049	n/a	RESPONSE	M1	2	14	D4	press
799.09	n/a	RESPONSE	M1	2	17	F4	release
799.523	n/a	RESPONSE	M1	2	14	D4	release
799.643	n/a	RESPONSE	M1	2	14	D4	press
799.913	n/a	RESPONSE	M1	2	14	D4	release
799.916	n/a	RESPONSE	M1	2	02	D3	release
799.919	n/a	RESPONSE	M1	2	05	F3	release
800.179	n/a	RESPONSE	M1	2	04	E3	press
800.242	n/a	RESPONSE	M1	2	12	C4	press
800.262	n/a	RESPONSE	M1	2	00	C3	press
800.57	n/a	RESPONSE	M1	2	16	E4	press
800.684	n/a	RESPONSE	M1	2	12	C4	release
800.872	n/a	RESPONSE	M1	2	12	C4	press
800.913	n/a	RESPONSE	M1	2	16	E4	release
801.884	n/a	RESPONSE	M1	2	12	C4	release
801.955	n/a	RESPONSE	M1	2	04	E3	release
802.006	n/a	RESPONSE	M1	2	00	C3	release
802.451	7.758	FIXCROSS	n/a	n/a	n/a	n/a	n/a
803.06	n/a	RESPONSE	M1	2	07	G3	release
810.21	6.317	CUE_LISTEN	M2	1	n/a	n/a	n/a
816.526	7.758	FIXCROSS	n/a	n/a	n/a	n/a	n/a
824.285	6.325	CUE_PLAYBACK_RIGHT_HAND	M2	1	n/a	n/a	n/a
824.766	n/a	RESPONSE	M2	1	24	C5	press
825.318	n/a	RESPONSE	M2	1	19	G4	press
825.409	n/a	RESPONSE	M2	1	24	C5	release
825.71	n/a	RESPONSE	M2	1	19	G4	release
825.852	n/a	RESPONSE	M2	1	19	G4	press
826.403	n/a	RESPONSE	M2	1	17	F4	press
826.554	n/a	RESPONSE	M2	1	19	G4	release
826.975	n/a	RESPONSE	M2	1	16	E4	press
827.046	n/a	RESPONSE	M2	1	17	F4	release
827.502	n/a	RESPONSE	M2	1	17	F4	press
827.646	n/a	RESPONSE	M2	1	16	E4	release
828.035	n/a	RESPONSE	M2	1	19	G4	press
828.155	n/a	RESPONSE	M2	1	17	F4	release
829.032	n/a	RESPONSE	M2	1	19	G4	release
830.61	7.758	FIXCROSS	n/a	n/a	n/a	n/a	n/a
838.368	6.325	CUE_LISTEN	M2	2	n/a	n/a	n/a
844.693	7.759	FIXCROSS	n/a	n/a	n/a	n/a	n/a
852.452	6.317	CUE_PLAYBACK_RIGHT_HAND	M2	2	n/a	n/a	n/a
852.912	n/a	RESPONSE	M2	2	24	C5	press
853.483	n/a	RESPONSE	M2	2	19	G4	press
853.604	n/a	RESPONSE	M2	2	24	C5	release
853.905	n/a	RESPONSE	M2	2	19	G4	release
854.036	n/a	RESPONSE	M2	2	19	G4	press
854.638	n/a	RESPONSE	M2	2	17	F4	press
854.769	n/a	RESPONSE	M2	2	19	G4	release
855.23	n/a	RESPONSE	M2	2	16	E4	press
855.292	n/a	RESPONSE	M2	2	17	F4	release
855.793	n/a	RESPONSE	M2	2	14	D4	press
855.895	n/a	RESPONSE	M2	2	16	E4	release
856.385	n/a	RESPONSE	M2	2	12	C4	press
856.458	n/a	RESPONSE	M2	2	14	D4	release
857.356	n/a	RESPONSE	M2	2	12	C4	release
858.768	7.758	FIXCROSS	n/a	n/a	n/a	n/a	n/a
866.526	6.317	CUE_LISTEN	M2	1	n/a	n/a	n/a
872.843	7.758	FIXCROSS	n/a	n/a	n/a	n/a	n/a
880.602	6.317	CUE_PLAYBACK_RIGHT_HAND	M2	1	n/a	n/a	n/a
881.244	n/a	RESPONSE	M2	1	12	C4	press
881.818	n/a	RESPONSE	M2	1	14	D4	press
881.908	n/a	RESPONSE	M2	1	12	C4	release
882.42	n/a	RESPONSE	M2	1	16	E4	press
882.489	n/a	RESPONSE	M2	1	14	D4	release
883.013	n/a	RESPONSE	M2	1	14	D4	press
883.092	n/a	RESPONSE	M2	1	16	E4	release
883.633	n/a	RESPONSE	M2	1	16	E4	press
883.724	n/a	RESPONSE	M2	1	14	D4	release
884.265	n/a	RESPONSE	M2	1	17	F4	press
884.318	n/a	RESPONSE	M2	1	16	E4	release
884.858	n/a	RESPONSE	M2	1	19	G4	press
884.93	n/a	RESPONSE	M2	1	17	F4	release
885.9	n/a	RESPONSE	M2	1	19	G4	release
886.918	7.758	FIXCROSS	n/a	n/a	n/a	n/a	n/a
894.676	6.317	CUE_LISTEN	M2	2	n/a	n/a	n/a
900.993	7.758	FIXCROSS	n/a	n/a	n/a	n/a	n/a
908.752	37.448	CUE_PLAYBACK_RIGHT_HAND	M2	2	n/a	n/a	n/a
909.323	n/a	RESPONSE	M2	2	16	E4	press
909.819	n/a	RESPONSE	M2	2	19	G4	press
909.854	n/a	RESPONSE	M2	2	16	E4	release
910.229	n/a	RESPONSE	M2	2	19	G4	release
910.366	n/a	RESPONSE	M2	2	19	G4	press
910.919	n/a	RESPONSE	M2	2	17	F4	press
910.93	n/a	RESPONSE	M2	2	16	E4	press
910.982	n/a	RESPONSE	M2	2	19	G4	release
911.634	n/a	RESPONSE	M2	2	17	F4	release
911.924	n/a	RESPONSE	M2	2	16	E4	release
912.745	n/a	RESPONSE	M2	2	16	E4	press
913.196	n/a	RESPONSE	M2	2	14	D4	press
913.243	n/a	FIXCROSS	n/a	n/a	n/a	n/a	n/a
913.278	n/a	RESPONSE	M2	2	16	E4	release
913.649	n/a	RESPONSE	M2	2	12	C4	press
913.76	n/a	RESPONSE	M2	2	14	D4	release
914.433	n/a	RESPONSE	M2	2	12	C4	release
