onset	duration	trial_type	trial_number	stroop_condition	stim_text(PL)	stim_text(eng)	stim_color(PL)	stim_color(eng)	response_type	response_color
0.0	n/a	RESPONSE	n/a	n/a	n/a	n/a	n/a	n/a	n/a	n/a
0.0562	1.0333	ITI	n/a	n/a	n/a	n/a	n/a	n/a	n/a	n/a
1.0895	0.5167	FIXCROSS	n/a	n/a	n/a	n/a	n/a	n/a	n/a	n/a
1.6062	1.0834	T_INK	1	Incongruent	niebieski	blue	żółty	yellow	hit	n/a
2.6528	n/a	RESPONSE	n/a	n/a	n/a	n/a	n/a	n/a	n/a	yellow
2.6895	0.5167	FEEDBACK	n/a	n/a	n/a	n/a	n/a	n/a	n/a	n/a
3.2062	1.0167	ITI	n/a	n/a	n/a	n/a	n/a	n/a	n/a	n/a
4.2229	0.5167	FIXCROSS	n/a	n/a	n/a	n/a	n/a	n/a	n/a	n/a
4.7396	1.0667	T_INK	2	Incongruent	niebieski	blue	zielony	green	hit	n/a
5.7691	n/a	RESPONSE	n/a	n/a	n/a	n/a	n/a	n/a	n/a	green
5.8062	0.5167	FEEDBACK	n/a	n/a	n/a	n/a	n/a	n/a	n/a	n/a
6.3229	1.0167	ITI	n/a	n/a	n/a	n/a	n/a	n/a	n/a	n/a
7.3396	0.5167	FIXCROSS	n/a	n/a	n/a	n/a	n/a	n/a	n/a	n/a
7.8562	0.5833	T_INK	3	Neutral	xxxxx	xxxxx	czerwony	red	incorrect	n/a
8.4061	n/a	RESPONSE	n/a	n/a	n/a	n/a	n/a	n/a	n/a	blue
8.4396	0.5167	FEEDBACK	n/a	n/a	n/a	n/a	n/a	n/a	n/a	n/a
8.9563	1.0167	ITI	n/a	n/a	n/a	n/a	n/a	n/a	n/a	n/a
9.9729	0.5167	FIXCROSS	n/a	n/a	n/a	n/a	n/a	n/a	n/a	n/a
10.4896	1.1667	T_INK	4	Neutral	xxxxxxx	xxxxxxx	czerwony	red	hit	n/a
11.6343	n/a	RESPONSE	n/a	n/a	n/a	n/a	n/a	n/a	n/a	red
11.6563	0.5167	FEEDBACK	n/a	n/a	n/a	n/a	n/a	n/a	n/a	n/a
12.1729	1.0167	ITI	n/a	n/a	n/a	n/a	n/a	n/a	n/a	n/a
13.1896	0.5167	FIXCROSS	n/a	n/a	n/a	n/a	n/a	n/a	n/a	n/a
13.7063	0.65	T_INK	5	Neutral	xxxxx	xxxxx	niebieski	blue	hit	n/a
14.3352	n/a	RESPONSE	n/a	n/a	n/a	n/a	n/a	n/a	n/a	blue
14.3563	0.5167	FEEDBACK	n/a	n/a	n/a	n/a	n/a	n/a	n/a	n/a
14.873	1.0167	ITI	n/a	n/a	n/a	n/a	n/a	n/a	n/a	n/a
15.8897	0.5167	FIXCROSS	n/a	n/a	n/a	n/a	n/a	n/a	n/a	n/a
16.4063	0.9	T_INK	6	Neutral	xxxxxxx	xxxxxxx	żółty	yellow	hit	n/a
17.2756	n/a	RESPONSE	n/a	n/a	n/a	n/a	n/a	n/a	n/a	yellow
17.3063	0.5167	FEEDBACK	n/a	n/a	n/a	n/a	n/a	n/a	n/a	n/a
17.823	1.0167	ITI	n/a	n/a	n/a	n/a	n/a	n/a	n/a	n/a
18.8397	0.5167	FIXCROSS	n/a	n/a	n/a	n/a	n/a	n/a	n/a	n/a
19.3563	0.95	T_INK	7	Neutral	xxxxxxxxx	xxxxxxxxx	czerwony	red	hit	n/a
20.2801	n/a	RESPONSE	n/a	n/a	n/a	n/a	n/a	n/a	n/a	red
20.3063	0.5167	FEEDBACK	n/a	n/a	n/a	n/a	n/a	n/a	n/a	n/a
20.823	1.0167	ITI	n/a	n/a	n/a	n/a	n/a	n/a	n/a	n/a
21.8397	0.5167	FIXCROSS	n/a	n/a	n/a	n/a	n/a	n/a	n/a	n/a
22.3564	0.9833	T_INK	8	Incongruent	czerwony	red	żółty	yellow	hit	n/a
23.3166	n/a	RESPONSE	n/a	n/a	n/a	n/a	n/a	n/a	n/a	yellow
23.3397	0.5167	FEEDBACK	n/a	n/a	n/a	n/a	n/a	n/a	n/a	n/a
23.8564	1.0167	ITI	n/a	n/a	n/a	n/a	n/a	n/a	n/a	n/a
24.8731	0.5167	FIXCROSS	n/a	n/a	n/a	n/a	n/a	n/a	n/a	n/a
25.3897	1.1833	T_INK	9	Neutral	xxxxxxx	xxxxxxx	niebieski	blue	hit	n/a
26.5447	n/a	RESPONSE	n/a	n/a	n/a	n/a	n/a	n/a	n/a	blue
26.5731	0.5167	FEEDBACK	n/a	n/a	n/a	n/a	n/a	n/a	n/a	n/a
27.0897	1.0167	ITI	n/a	n/a	n/a	n/a	n/a	n/a	n/a	n/a
28.1064	0.5167	FIXCROSS	n/a	n/a	n/a	n/a	n/a	n/a	n/a	n/a
28.6231	1.3	T_INK	10	Neutral	xxxxxxxx	xxxxxxxx	zielony	green	hit	n/a
29.9008	n/a	RESPONSE	n/a	n/a	n/a	n/a	n/a	n/a	n/a	green
29.9231	0.5167	FEEDBACK	n/a	n/a	n/a	n/a	n/a	n/a	n/a	n/a
30.4398	1.0167	ITI	n/a	n/a	n/a	n/a	n/a	n/a	n/a	n/a
31.4564	0.5167	FIXCROSS	n/a	n/a	n/a	n/a	n/a	n/a	n/a	n/a
31.9731	0.9167	T_INK	11	Incongruent	zielony	green	niebieski	blue	hit	n/a
32.8573	n/a	RESPONSE	n/a	n/a	n/a	n/a	n/a	n/a	n/a	blue
32.8898	0.5167	FEEDBACK	n/a	n/a	n/a	n/a	n/a	n/a	n/a	n/a
33.4065	1.0167	ITI	n/a	n/a	n/a	n/a	n/a	n/a	n/a	n/a
34.4231	0.5167	FIXCROSS	n/a	n/a	n/a	n/a	n/a	n/a	n/a	n/a
34.9398	1.0667	T_INK	12	Incongruent	czerwony	red	niebieski	blue	hit	n/a
35.9737	n/a	RESPONSE	n/a	n/a	n/a	n/a	n/a	n/a	n/a	blue
36.0065	0.5167	FEEDBACK	n/a	n/a	n/a	n/a	n/a	n/a	n/a	n/a
36.5231	1.0333	ITI	n/a	n/a	n/a	n/a	n/a	n/a	n/a	n/a
42.2063	n/a	RESPONSE	n/a	n/a	n/a	n/a	n/a	n/a	n/a	n/a
42.2732	1.0167	ITI	n/a	n/a	n/a	n/a	n/a	n/a	n/a	n/a
43.2899	0.5167	FIXCROSS	n/a	n/a	n/a	n/a	n/a	n/a	n/a	n/a
43.8065	0.95	INK	1	Incongruent	niebieski	blue	zielony	green	hit	n/a
44.7314	n/a	RESPONSE	n/a	n/a	n/a	n/a	n/a	n/a	n/a	green
44.7565	1.0167	ITI	n/a	n/a	n/a	n/a	n/a	n/a	n/a	n/a
45.7732	0.5167	FIXCROSS	n/a	n/a	n/a	n/a	n/a	n/a	n/a	n/a
46.2899	0.9333	INK	2	Neutral	xxxxx	xxxxx	czerwony	red	hit	n/a
47.1925	n/a	RESPONSE	n/a	n/a	n/a	n/a	n/a	n/a	n/a	red
47.2232	1.0167	ITI	n/a	n/a	n/a	n/a	n/a	n/a	n/a	n/a
48.2399	0.5167	FIXCROSS	n/a	n/a	n/a	n/a	n/a	n/a	n/a	n/a
48.7566	0.8333	INK	3	Neutral	xxxxx	xxxxx	zielony	green	incorrect	n/a
49.5578	n/a	RESPONSE	n/a	n/a	n/a	n/a	n/a	n/a	n/a	blue
49.5899	1.0167	ITI	n/a	n/a	n/a	n/a	n/a	n/a	n/a	n/a
50.6066	0.5167	FIXCROSS	n/a	n/a	n/a	n/a	n/a	n/a	n/a	n/a
51.1232	0.8667	INK	4	Neutral	xxxxx	xxxxx	zielony	green	hit	n/a
51.971	n/a	RESPONSE	n/a	n/a	n/a	n/a	n/a	n/a	n/a	green
51.9899	1.0167	ITI	n/a	n/a	n/a	n/a	n/a	n/a	n/a	n/a
53.0066	0.5167	FIXCROSS	n/a	n/a	n/a	n/a	n/a	n/a	n/a	n/a
53.5233	0.8333	INK	5	Neutral	xxxxxxxxx	xxxxxxxxx	żółty	yellow	hit	n/a
54.3361	n/a	RESPONSE	n/a	n/a	n/a	n/a	n/a	n/a	n/a	yellow
54.3566	1.0167	ITI	n/a	n/a	n/a	n/a	n/a	n/a	n/a	n/a
55.3733	0.5167	FIXCROSS	n/a	n/a	n/a	n/a	n/a	n/a	n/a	n/a
55.89	1.1833	INK	6	Incongruent	niebieski	blue	żółty	yellow	hit	n/a
57.0529	n/a	RESPONSE	n/a	n/a	n/a	n/a	n/a	n/a	n/a	yellow
57.0733	1.0167	ITI	n/a	n/a	n/a	n/a	n/a	n/a	n/a	n/a
58.09	0.5167	FIXCROSS	n/a	n/a	n/a	n/a	n/a	n/a	n/a	n/a
58.6066	0.5667	INK	7	Incongruent	czerwony	red	żółty	yellow	hit	n/a
59.1464	n/a	RESPONSE	n/a	n/a	n/a	n/a	n/a	n/a	n/a	yellow
59.1733	1.0167	ITI	n/a	n/a	n/a	n/a	n/a	n/a	n/a	n/a
60.19	0.5167	FIXCROSS	n/a	n/a	n/a	n/a	n/a	n/a	n/a	n/a
60.7067	0.8333	INK	8	Neutral	xxxxxxxxx	xxxxxxxxx	zielony	green	hit	n/a
61.5116	n/a	RESPONSE	n/a	n/a	n/a	n/a	n/a	n/a	n/a	green
61.54	1.0333	ITI	n/a	n/a	n/a	n/a	n/a	n/a	n/a	n/a
62.5733	0.5167	FIXCROSS	n/a	n/a	n/a	n/a	n/a	n/a	n/a	n/a
63.09	1.0	INK	9	Incongruent	żółty	yellow	czerwony	red	hit	n/a
64.0686	n/a	RESPONSE	n/a	n/a	n/a	n/a	n/a	n/a	n/a	red
64.09	1.0167	ITI	n/a	n/a	n/a	n/a	n/a	n/a	n/a	n/a
65.1067	0.5167	FIXCROSS	n/a	n/a	n/a	n/a	n/a	n/a	n/a	n/a
65.6234	1.0167	INK	10	Neutral	xxxxxxxx	xxxxxxxx	zielony	green	hit	n/a
66.6097	n/a	RESPONSE	n/a	n/a	n/a	n/a	n/a	n/a	n/a	green
66.64	1.0167	ITI	n/a	n/a	n/a	n/a	n/a	n/a	n/a	n/a
67.6567	0.5167	FIXCROSS	n/a	n/a	n/a	n/a	n/a	n/a	n/a	n/a
68.1734	0.8833	INK	11	Neutral	xxxxxxxx	xxxxxxxx	niebieski	blue	hit	n/a
69.0388	n/a	RESPONSE	n/a	n/a	n/a	n/a	n/a	n/a	n/a	blue
69.0567	1.0167	ITI	n/a	n/a	n/a	n/a	n/a	n/a	n/a	n/a
70.0734	0.5167	FIXCROSS	n/a	n/a	n/a	n/a	n/a	n/a	n/a	n/a
70.5901	0.65	INK	12	Neutral	xxxxxxx	xxxxxxx	niebieski	blue	hit	n/a
71.2122	n/a	RESPONSE	n/a	n/a	n/a	n/a	n/a	n/a	n/a	blue
71.2401	1.0167	ITI	n/a	n/a	n/a	n/a	n/a	n/a	n/a	n/a
72.2567	0.5167	FIXCROSS	n/a	n/a	n/a	n/a	n/a	n/a	n/a	n/a
72.7734	1.1833	INK	13	Incongruent	zielony	green	czerwony	red	hit	n/a
73.9289	n/a	RESPONSE	n/a	n/a	n/a	n/a	n/a	n/a	n/a	red
73.9568	1.0167	ITI	n/a	n/a	n/a	n/a	n/a	n/a	n/a	n/a
74.9734	0.5167	FIXCROSS	n/a	n/a	n/a	n/a	n/a	n/a	n/a	n/a
75.4901	0.9167	INK	14	Neutral	xxxxxxxx	xxxxxxxx	zielony	green	hit	n/a
76.3742	n/a	RESPONSE	n/a	n/a	n/a	n/a	n/a	n/a	n/a	green
76.4068	1.0167	ITI	n/a	n/a	n/a	n/a	n/a	n/a	n/a	n/a
77.4235	0.5167	FIXCROSS	n/a	n/a	n/a	n/a	n/a	n/a	n/a	n/a
77.9401	0.75	INK	15	Incongruent	zielony	green	żółty	yellow	hit	n/a
78.6595	n/a	RESPONSE	n/a	n/a	n/a	n/a	n/a	n/a	n/a	yellow
78.6901	1.0167	ITI	n/a	n/a	n/a	n/a	n/a	n/a	n/a	n/a
79.7068	0.5167	FIXCROSS	n/a	n/a	n/a	n/a	n/a	n/a	n/a	n/a
80.2235	1.1	INK	16	Incongruent	zielony	green	czerwony	red	hit	n/a
81.2964	n/a	RESPONSE	n/a	n/a	n/a	n/a	n/a	n/a	n/a	red
81.3235	1.0167	ITI	n/a	n/a	n/a	n/a	n/a	n/a	n/a	n/a
82.3402	0.5167	FIXCROSS	n/a	n/a	n/a	n/a	n/a	n/a	n/a	n/a
82.8568	0.8334	INK	17	Incongruent	czerwony	red	niebieski	blue	hit	n/a
83.6616	n/a	RESPONSE	n/a	n/a	n/a	n/a	n/a	n/a	n/a	blue
83.6902	1.0167	ITI	n/a	n/a	n/a	n/a	n/a	n/a	n/a	n/a
84.7069	0.5167	FIXCROSS	n/a	n/a	n/a	n/a	n/a	n/a	n/a	n/a
85.2235	0.5167	INK	18	Neutral	xxxxx	xxxxx	niebieski	blue	hit	n/a
85.7072	n/a	RESPONSE	n/a	n/a	n/a	n/a	n/a	n/a	n/a	blue
85.7402	1.0167	ITI	n/a	n/a	n/a	n/a	n/a	n/a	n/a	n/a
86.7569	0.5167	FIXCROSS	n/a	n/a	n/a	n/a	n/a	n/a	n/a	n/a
87.2735	1.2	INK	19	Incongruent	żółty	yellow	zielony	green	hit	n/a
88.44	n/a	RESPONSE	n/a	n/a	n/a	n/a	n/a	n/a	n/a	green
88.4735	1.0167	ITI	n/a	n/a	n/a	n/a	n/a	n/a	n/a	n/a
89.4902	0.5167	FIXCROSS	n/a	n/a	n/a	n/a	n/a	n/a	n/a	n/a
90.0069	0.7667	INK	20	Neutral	xxxxxxxx	xxxxxxxx	niebieski	blue	hit	n/a
90.7413	n/a	RESPONSE	n/a	n/a	n/a	n/a	n/a	n/a	n/a	blue
90.7736	1.0167	ITI	n/a	n/a	n/a	n/a	n/a	n/a	n/a	n/a
91.7902	0.5167	FIXCROSS	n/a	n/a	n/a	n/a	n/a	n/a	n/a	n/a
92.3069	1.4	INK	21	Neutral	xxxxx	xxxxx	zielony	green	hit	n/a
93.6818	n/a	RESPONSE	n/a	n/a	n/a	n/a	n/a	n/a	n/a	green
93.7069	1.0167	ITI	n/a	n/a	n/a	n/a	n/a	n/a	n/a	n/a
94.7236	0.5167	FIXCROSS	n/a	n/a	n/a	n/a	n/a	n/a	n/a	n/a
95.2403	1.0833	INK	22	Incongruent	czerwony	red	niebieski	blue	hit	n/a
96.3028	n/a	RESPONSE	n/a	n/a	n/a	n/a	n/a	n/a	n/a	blue
96.3236	1.0167	ITI	n/a	n/a	n/a	n/a	n/a	n/a	n/a	n/a
97.3403	0.5167	FIXCROSS	n/a	n/a	n/a	n/a	n/a	n/a	n/a	n/a
97.8569	0.9	INK	23	Neutral	xxxxxxx	xxxxxxx	czerwony	red	hit	n/a
98.7319	n/a	RESPONSE	n/a	n/a	n/a	n/a	n/a	n/a	n/a	red
98.757	1.0167	ITI	n/a	n/a	n/a	n/a	n/a	n/a	n/a	n/a
99.7736	0.5167	FIXCROSS	n/a	n/a	n/a	n/a	n/a	n/a	n/a	n/a
100.2903	1.1	INK	24	Incongruent	zielony	green	czerwony	red	hit	n/a
101.3689	n/a	RESPONSE	n/a	n/a	n/a	n/a	n/a	n/a	n/a	red
101.3903	1.0167	ITI	n/a	n/a	n/a	n/a	n/a	n/a	n/a	n/a
102.407	0.5167	FIXCROSS	n/a	n/a	n/a	n/a	n/a	n/a	n/a	n/a
102.9237	0.8333	INK	25	Neutral	xxxxxxxxx	xxxxxxxxx	żółty	yellow	hit	n/a
103.734	n/a	RESPONSE	n/a	n/a	n/a	n/a	n/a	n/a	n/a	yellow
103.757	1.0167	ITI	n/a	n/a	n/a	n/a	n/a	n/a	n/a	n/a
104.7737	0.5167	FIXCROSS	n/a	n/a	n/a	n/a	n/a	n/a	n/a	n/a
105.2903	0.8333	INK	26	Incongruent	żółty	yellow	niebieski	blue	hit	n/a
106.0993	n/a	RESPONSE	n/a	n/a	n/a	n/a	n/a	n/a	n/a	blue
106.1237	1.0167	ITI	n/a	n/a	n/a	n/a	n/a	n/a	n/a	n/a
107.1403	0.5167	FIXCROSS	n/a	n/a	n/a	n/a	n/a	n/a	n/a	n/a
107.657	0.95	INK	27	Incongruent	czerwony	red	zielony	green	hit	n/a
108.5764	n/a	RESPONSE	n/a	n/a	n/a	n/a	n/a	n/a	n/a	green
108.607	1.0167	ITI	n/a	n/a	n/a	n/a	n/a	n/a	n/a	n/a
109.6237	0.5167	FIXCROSS	n/a	n/a	n/a	n/a	n/a	n/a	n/a	n/a
110.1404	1.0167	INK	28	Incongruent	żółty	yellow	czerwony	red	hit	n/a
111.1334	n/a	RESPONSE	n/a	n/a	n/a	n/a	n/a	n/a	n/a	red
111.157	1.0167	ITI	n/a	n/a	n/a	n/a	n/a	n/a	n/a	n/a
112.1737	0.5167	FIXCROSS	n/a	n/a	n/a	n/a	n/a	n/a	n/a	n/a
112.6904	0.7667	INK	29	Neutral	xxxxxxxx	xxxxxxxx	żółty	yellow	hit	n/a
113.4346	n/a	RESPONSE	n/a	n/a	n/a	n/a	n/a	n/a	n/a	yellow
113.4571	1.0167	ITI	n/a	n/a	n/a	n/a	n/a	n/a	n/a	n/a
114.4737	0.5167	FIXCROSS	n/a	n/a	n/a	n/a	n/a	n/a	n/a	n/a
114.9904	1.7	INK	30	Incongruent	niebieski	blue	czerwony	red	hit	n/a
116.663	n/a	RESPONSE	n/a	n/a	n/a	n/a	n/a	n/a	n/a	red
116.6904	1.0167	ITI	n/a	n/a	n/a	n/a	n/a	n/a	n/a	n/a
117.7071	0.5167	FIXCROSS	n/a	n/a	n/a	n/a	n/a	n/a	n/a	n/a
118.2238	1.3	INK	31	Incongruent	czerwony	red	żółty	yellow	hit	n/a
119.4915	n/a	RESPONSE	n/a	n/a	n/a	n/a	n/a	n/a	n/a	yellow
119.5238	1.0167	ITI	n/a	n/a	n/a	n/a	n/a	n/a	n/a	n/a
120.5405	0.5167	FIXCROSS	n/a	n/a	n/a	n/a	n/a	n/a	n/a	n/a
121.0571	0.5667	INK	32	Neutral	xxxxxxxxx	xxxxxxxxx	czerwony	red	hit	n/a
121.6011	n/a	RESPONSE	n/a	n/a	n/a	n/a	n/a	n/a	n/a	red
121.6238	1.0167	ITI	n/a	n/a	n/a	n/a	n/a	n/a	n/a	n/a
122.6405	0.5167	FIXCROSS	n/a	n/a	n/a	n/a	n/a	n/a	n/a	n/a
123.1571	1.2667	INK	33	Neutral	xxxxxxx	xxxxxxx	żółty	yellow	hit	n/a
124.3977	n/a	RESPONSE	n/a	n/a	n/a	n/a	n/a	n/a	n/a	yellow
124.4238	1.0167	ITI	n/a	n/a	n/a	n/a	n/a	n/a	n/a	n/a
125.4405	0.5167	FIXCROSS	n/a	n/a	n/a	n/a	n/a	n/a	n/a	n/a
125.9572	0.8833	INK	34	Incongruent	żółty	yellow	czerwony	red	hit	n/a
126.8109	n/a	RESPONSE	n/a	n/a	n/a	n/a	n/a	n/a	n/a	red
126.8405	1.0167	ITI	n/a	n/a	n/a	n/a	n/a	n/a	n/a	n/a
127.8572	0.5167	FIXCROSS	n/a	n/a	n/a	n/a	n/a	n/a	n/a	n/a
128.3739	0.7333	INK	35	Incongruent	zielony	green	niebieski	blue	hit	n/a
129.0803	n/a	RESPONSE	n/a	n/a	n/a	n/a	n/a	n/a	n/a	blue
129.1072	1.0167	ITI	n/a	n/a	n/a	n/a	n/a	n/a	n/a	n/a
130.1239	0.5167	FIXCROSS	n/a	n/a	n/a	n/a	n/a	n/a	n/a	n/a
130.6405	1.0	INK	36	Incongruent	niebieski	blue	zielony	green	hit	n/a
131.6213	n/a	RESPONSE	n/a	n/a	n/a	n/a	n/a	n/a	n/a	green
131.6405	1.0167	ITI	n/a	n/a	n/a	n/a	n/a	n/a	n/a	n/a
132.6572	0.5167	FIXCROSS	n/a	n/a	n/a	n/a	n/a	n/a	n/a	n/a
133.1739	0.4833	INK	37	Neutral	xxxxxxxxx	xxxxxxxxx	zielony	green	hit	n/a
133.635	n/a	RESPONSE	n/a	n/a	n/a	n/a	n/a	n/a	n/a	green
133.6572	1.0167	ITI	n/a	n/a	n/a	n/a	n/a	n/a	n/a	n/a
134.6739	0.5167	FIXCROSS	n/a	n/a	n/a	n/a	n/a	n/a	n/a	n/a
135.1906	0.5	INK	38	Neutral	xxxxx	xxxxx	czerwony	red	hit	n/a
135.6646	n/a	RESPONSE	n/a	n/a	n/a	n/a	n/a	n/a	n/a	red
135.6906	1.0167	ITI	n/a	n/a	n/a	n/a	n/a	n/a	n/a	n/a
136.7072	0.5167	FIXCROSS	n/a	n/a	n/a	n/a	n/a	n/a	n/a	n/a
137.2239	0.55	INK	39	Neutral	xxxxxxxxx	xxxxxxxxx	czerwony	red	hit	n/a
137.7422	n/a	RESPONSE	n/a	n/a	n/a	n/a	n/a	n/a	n/a	red
137.7739	1.0167	ITI	n/a	n/a	n/a	n/a	n/a	n/a	n/a	n/a
138.7906	0.5167	FIXCROSS	n/a	n/a	n/a	n/a	n/a	n/a	n/a	n/a
139.3073	0.4667	INK	40	Neutral	xxxxxxx	xxxxxxx	czerwony	red	hit	n/a
139.7559	n/a	RESPONSE	n/a	n/a	n/a	n/a	n/a	n/a	n/a	red
139.7739	1.0167	ITI	n/a	n/a	n/a	n/a	n/a	n/a	n/a	n/a
140.7906	0.5167	FIXCROSS	n/a	n/a	n/a	n/a	n/a	n/a	n/a	n/a
141.3073	0.8	INK	41	Neutral	xxxxxxx	xxxxxxx	żółty	yellow	hit	n/a
142.0891	n/a	RESPONSE	n/a	n/a	n/a	n/a	n/a	n/a	n/a	yellow
142.1073	1.0167	ITI	n/a	n/a	n/a	n/a	n/a	n/a	n/a	n/a
143.124	0.5167	FIXCROSS	n/a	n/a	n/a	n/a	n/a	n/a	n/a	n/a
143.6406	0.9167	INK	42	Neutral	xxxxx	xxxxx	niebieski	blue	hit	n/a
144.5342	n/a	RESPONSE	n/a	n/a	n/a	n/a	n/a	n/a	n/a	blue
144.5573	1.0167	ITI	n/a	n/a	n/a	n/a	n/a	n/a	n/a	n/a
145.574	0.5167	FIXCROSS	n/a	n/a	n/a	n/a	n/a	n/a	n/a	n/a
146.0906	1.2167	INK	43	Incongruent	czerwony	red	zielony	green	hit	n/a
147.2831	n/a	RESPONSE	n/a	n/a	n/a	n/a	n/a	n/a	n/a	green
147.3073	1.0167	ITI	n/a	n/a	n/a	n/a	n/a	n/a	n/a	n/a
148.324	0.5167	FIXCROSS	n/a	n/a	n/a	n/a	n/a	n/a	n/a	n/a
148.8407	0.55	INK	44	Neutral	xxxxxxx	xxxxxxx	czerwony	red	hit	n/a
149.3606	n/a	RESPONSE	n/a	n/a	n/a	n/a	n/a	n/a	n/a	red
149.3907	1.0167	ITI	n/a	n/a	n/a	n/a	n/a	n/a	n/a	n/a
150.4074	0.5167	FIXCROSS	n/a	n/a	n/a	n/a	n/a	n/a	n/a	n/a
150.924	0.45	INK	45	Incongruent	niebieski	blue	czerwony	red	hit	n/a
151.3423	n/a	RESPONSE	n/a	n/a	n/a	n/a	n/a	n/a	n/a	red
151.374	1.0167	ITI	n/a	n/a	n/a	n/a	n/a	n/a	n/a	n/a
152.3907	0.5167	FIXCROSS	n/a	n/a	n/a	n/a	n/a	n/a	n/a	n/a
152.9074	0.3667	INK	46	Incongruent	niebieski	blue	czerwony	red	hit	n/a
153.2441	n/a	RESPONSE	n/a	n/a	n/a	n/a	n/a	n/a	n/a	red
153.274	1.0167	ITI	n/a	n/a	n/a	n/a	n/a	n/a	n/a	n/a
154.2907	0.5167	FIXCROSS	n/a	n/a	n/a	n/a	n/a	n/a	n/a	n/a
154.8074	1.0	INK	47	Incongruent	niebieski	blue	żółty	yellow	hit	n/a
155.7851	n/a	RESPONSE	n/a	n/a	n/a	n/a	n/a	n/a	n/a	yellow
155.8074	1.0167	ITI	n/a	n/a	n/a	n/a	n/a	n/a	n/a	n/a
156.8241	0.5167	FIXCROSS	n/a	n/a	n/a	n/a	n/a	n/a	n/a	n/a
157.3407	0.6667	INK	48	Incongruent	niebieski	blue	zielony	green	hit	n/a
157.9746	n/a	RESPONSE	n/a	n/a	n/a	n/a	n/a	n/a	n/a	green
158.0074	1.0167	ITI	n/a	n/a	n/a	n/a	n/a	n/a	n/a	n/a
159.0241	0.5167	FIXCROSS	n/a	n/a	n/a	n/a	n/a	n/a	n/a	n/a
159.5407	0.8333	INK	49	Neutral	xxxxxxxxx	xxxxxxxxx	żółty	yellow	hit	n/a
160.3558	n/a	RESPONSE	n/a	n/a	n/a	n/a	n/a	n/a	n/a	yellow
160.3741	1.0167	ITI	n/a	n/a	n/a	n/a	n/a	n/a	n/a	n/a
161.3908	0.5167	FIXCROSS	n/a	n/a	n/a	n/a	n/a	n/a	n/a	n/a
161.9074	0.8667	INK	50	Neutral	xxxxxxxx	xxxxxxxx	zielony	green	hit	n/a
162.753	n/a	RESPONSE	n/a	n/a	n/a	n/a	n/a	n/a	n/a	green
162.7741	1.0167	ITI	n/a	n/a	n/a	n/a	n/a	n/a	n/a	n/a
163.7908	0.5167	FIXCROSS	n/a	n/a	n/a	n/a	n/a	n/a	n/a	n/a
164.3075	0.8667	INK	51	Incongruent	niebieski	blue	żółty	yellow	hit	n/a
165.1501	n/a	RESPONSE	n/a	n/a	n/a	n/a	n/a	n/a	n/a	yellow
165.1741	1.0167	ITI	n/a	n/a	n/a	n/a	n/a	n/a	n/a	n/a
166.1908	0.5167	FIXCROSS	n/a	n/a	n/a	n/a	n/a	n/a	n/a	n/a
166.7075	0.8667	INK	52	Incongruent	czerwony	red	żółty	yellow	hit	n/a
167.5473	n/a	RESPONSE	n/a	n/a	n/a	n/a	n/a	n/a	n/a	yellow
167.5741	1.0167	ITI	n/a	n/a	n/a	n/a	n/a	n/a	n/a	n/a
168.5908	0.5167	FIXCROSS	n/a	n/a	n/a	n/a	n/a	n/a	n/a	n/a
169.1075	0.3833	INK	53	Neutral	xxxxxxxx	xxxxxxxx	żółty	yellow	hit	n/a
169.4651	n/a	RESPONSE	n/a	n/a	n/a	n/a	n/a	n/a	n/a	yellow
169.4908	1.0167	ITI	n/a	n/a	n/a	n/a	n/a	n/a	n/a	n/a
170.5075	0.5167	FIXCROSS	n/a	n/a	n/a	n/a	n/a	n/a	n/a	n/a
171.0242	0.5	INK	54	Neutral	xxxxxxx	xxxxxxx	żółty	yellow	hit	n/a
171.4947	n/a	RESPONSE	n/a	n/a	n/a	n/a	n/a	n/a	n/a	yellow
171.5242	1.0167	ITI	n/a	n/a	n/a	n/a	n/a	n/a	n/a	n/a
172.5409	0.5167	FIXCROSS	n/a	n/a	n/a	n/a	n/a	n/a	n/a	n/a
173.0575	1.2167	INK	55	Incongruent	zielony	green	niebieski	blue	hit	n/a
174.2435	n/a	RESPONSE	n/a	n/a	n/a	n/a	n/a	n/a	n/a	blue
174.2742	1.0167	ITI	n/a	n/a	n/a	n/a	n/a	n/a	n/a	n/a
175.2909	0.5167	FIXCROSS	n/a	n/a	n/a	n/a	n/a	n/a	n/a	n/a
175.8075	0.4167	INK	56	Incongruent	żółty	yellow	niebieski	blue	hit	n/a
176.1932	n/a	RESPONSE	n/a	n/a	n/a	n/a	n/a	n/a	n/a	blue
176.2242	1.0167	ITI	n/a	n/a	n/a	n/a	n/a	n/a	n/a	n/a
177.2409	0.5167	FIXCROSS	n/a	n/a	n/a	n/a	n/a	n/a	n/a	n/a
177.7576	0.4	INK	57	Incongruent	czerwony	red	niebieski	blue	hit	n/a
178.127	n/a	RESPONSE	n/a	n/a	n/a	n/a	n/a	n/a	n/a	blue
178.1576	1.0167	ITI	n/a	n/a	n/a	n/a	n/a	n/a	n/a	n/a
179.1742	0.5167	FIXCROSS	n/a	n/a	n/a	n/a	n/a	n/a	n/a	n/a
179.6909	1.05	INK	58	Incongruent	czerwony	red	zielony	green	hit	n/a
180.7158	n/a	RESPONSE	n/a	n/a	n/a	n/a	n/a	n/a	n/a	green
180.7409	1.0167	ITI	n/a	n/a	n/a	n/a	n/a	n/a	n/a	n/a
181.7576	0.5167	FIXCROSS	n/a	n/a	n/a	n/a	n/a	n/a	n/a	n/a
182.2743	0.7167	INK	59	Neutral	xxxxxxxx	xxxxxxxx	niebieski	blue	hit	n/a
182.9691	n/a	RESPONSE	n/a	n/a	n/a	n/a	n/a	n/a	n/a	blue
182.9909	1.0167	ITI	n/a	n/a	n/a	n/a	n/a	n/a	n/a	n/a
184.0076	0.5167	FIXCROSS	n/a	n/a	n/a	n/a	n/a	n/a	n/a	n/a
184.5243	0.5333	INK	60	Neutral	xxxxxxxxx	xxxxxxxxx	czerwony	red	hit	n/a
185.0308	n/a	RESPONSE	n/a	n/a	n/a	n/a	n/a	n/a	n/a	red
185.0576	1.0167	ITI	n/a	n/a	n/a	n/a	n/a	n/a	n/a	n/a
186.0743	0.5167	FIXCROSS	n/a	n/a	n/a	n/a	n/a	n/a	n/a	n/a
186.5909	0.75	INK	61	Incongruent	zielony	green	niebieski	blue	hit	n/a
187.3161	n/a	RESPONSE	n/a	n/a	n/a	n/a	n/a	n/a	n/a	blue
187.341	1.0167	ITI	n/a	n/a	n/a	n/a	n/a	n/a	n/a	n/a
188.3576	0.5167	FIXCROSS	n/a	n/a	n/a	n/a	n/a	n/a	n/a	n/a
188.8743	1.0167	INK	62	Neutral	xxxxxxxx	xxxxxxxx	żółty	yellow	incorrect	n/a
189.8571	n/a	RESPONSE	n/a	n/a	n/a	n/a	n/a	n/a	n/a	green
189.891	1.0167	ITI	n/a	n/a	n/a	n/a	n/a	n/a	n/a	n/a
190.1607	n/a	RESPONSE	n/a	n/a	n/a	n/a	n/a	n/a	n/a	yellow
190.9076	0.5167	FIXCROSS	n/a	n/a	n/a	n/a	n/a	n/a	n/a	n/a
191.4243	0.6	INK	63	Incongruent	zielony	green	żółty	yellow	hit	n/a
191.9985	n/a	RESPONSE	n/a	n/a	n/a	n/a	n/a	n/a	n/a	yellow
192.0243	1.0167	ITI	n/a	n/a	n/a	n/a	n/a	n/a	n/a	n/a
193.041	0.5167	FIXCROSS	n/a	n/a	n/a	n/a	n/a	n/a	n/a	n/a
193.5577	0.9333	INK	64	Neutral	xxxxx	xxxxx	niebieski	blue	hit	n/a
194.4596	n/a	RESPONSE	n/a	n/a	n/a	n/a	n/a	n/a	n/a	blue
194.491	1.0167	ITI	n/a	n/a	n/a	n/a	n/a	n/a	n/a	n/a
195.5077	0.5167	FIXCROSS	n/a	n/a	n/a	n/a	n/a	n/a	n/a	n/a
196.0244	0.8167	INK	65	Incongruent	żółty	yellow	zielony	green	hit	n/a
196.8088	n/a	RESPONSE	n/a	n/a	n/a	n/a	n/a	n/a	n/a	green
196.841	1.0167	ITI	n/a	n/a	n/a	n/a	n/a	n/a	n/a	n/a
197.8577	0.5167	FIXCROSS	n/a	n/a	n/a	n/a	n/a	n/a	n/a	n/a
198.3744	0.95	INK	66	Incongruent	żółty	yellow	niebieski	blue	hit	n/a
199.3021	n/a	RESPONSE	n/a	n/a	n/a	n/a	n/a	n/a	n/a	blue
199.3244	1.0167	ITI	n/a	n/a	n/a	n/a	n/a	n/a	n/a	n/a
200.3411	0.5167	FIXCROSS	n/a	n/a	n/a	n/a	n/a	n/a	n/a	n/a
200.8577	0.8333	INK	67	Incongruent	zielony	green	żółty	yellow	hit	n/a
201.6673	n/a	RESPONSE	n/a	n/a	n/a	n/a	n/a	n/a	n/a	yellow
201.6911	1.0167	ITI	n/a	n/a	n/a	n/a	n/a	n/a	n/a	n/a
202.7077	0.5167	FIXCROSS	n/a	n/a	n/a	n/a	n/a	n/a	n/a	n/a
203.2244	0.6333	INK	68	Neutral	xxxxxxx	xxxxxxx	niebieski	blue	hit	n/a
203.8248	n/a	RESPONSE	n/a	n/a	n/a	n/a	n/a	n/a	n/a	blue
203.8578	1.0167	ITI	n/a	n/a	n/a	n/a	n/a	n/a	n/a	n/a
204.8744	0.5167	FIXCROSS	n/a	n/a	n/a	n/a	n/a	n/a	n/a	n/a
205.3911	0.4167	INK	69	Neutral	xxxxx	xxxxx	czerwony	red	hit	n/a
205.7745	n/a	RESPONSE	n/a	n/a	n/a	n/a	n/a	n/a	n/a	red
205.8078	1.0167	ITI	n/a	n/a	n/a	n/a	n/a	n/a	n/a	n/a
206.8244	0.5115	FIXCROSS	n/a	n/a	n/a	n/a	n/a	n/a	n/a	n/a
207.3359	0.9719	INK	70	Neutral	xxxxxxxxx	xxxxxxxxx	zielony	green	hit	n/a
208.2835	n/a	RESPONSE	n/a	n/a	n/a	n/a	n/a	n/a	n/a	green
208.3078	1.0167	ITI	n/a	n/a	n/a	n/a	n/a	n/a	n/a	n/a
209.3244	0.5167	FIXCROSS	n/a	n/a	n/a	n/a	n/a	n/a	n/a	n/a
209.8411	0.65	INK	71	Neutral	xxxxxxx	xxxxxxx	niebieski	blue	hit	n/a
210.473	n/a	RESPONSE	n/a	n/a	n/a	n/a	n/a	n/a	n/a	blue
210.4911	1.0167	ITI	n/a	n/a	n/a	n/a	n/a	n/a	n/a	n/a
211.5078	0.5167	FIXCROSS	n/a	n/a	n/a	n/a	n/a	n/a	n/a	n/a
212.0245	1.0833	INK	72	Incongruent	żółty	yellow	zielony	green	hit	n/a
213.0779	n/a	RESPONSE	n/a	n/a	n/a	n/a	n/a	n/a	n/a	green
213.1078	1.0833	ITI	n/a	n/a	n/a	n/a	n/a	n/a	n/a	n/a
245.3445	n/a	RESPONSE	n/a	n/a	n/a	n/a	n/a	n/a	n/a	n/a
245.4081	1.0167	ITI	n/a	n/a	n/a	n/a	n/a	n/a	n/a	n/a
246.4247	0.5167	FIXCROSS	n/a	n/a	n/a	n/a	n/a	n/a	n/a	n/a
246.9414	1.7	T_COLOR_NAME	1	Incongruent	czerwony	red	żółty	yellow	hit	n/a
248.6047	n/a	RESPONSE	n/a	n/a	n/a	n/a	n/a	n/a	n/a	red
248.6414	0.5167	FEEDBACK	n/a	n/a	n/a	n/a	n/a	n/a	n/a	n/a
249.1581	1.0167	ITI	n/a	n/a	n/a	n/a	n/a	n/a	n/a	n/a
250.1747	0.5167	FIXCROSS	n/a	n/a	n/a	n/a	n/a	n/a	n/a	n/a
250.6914	0.7833	T_COLOR_NAME	2	Neutral	żółty	yellow	Neutral	Neutral	hit	n/a
251.4496	n/a	RESPONSE	n/a	n/a	n/a	n/a	n/a	n/a	n/a	yellow
251.4748	0.5167	FEEDBACK	n/a	n/a	n/a	n/a	n/a	n/a	n/a	n/a
251.9914	1.0167	ITI	n/a	n/a	n/a	n/a	n/a	n/a	n/a	n/a
253.0081	0.5167	FIXCROSS	n/a	n/a	n/a	n/a	n/a	n/a	n/a	n/a
253.5248	0.5	T_COLOR_NAME	3	Neutral	zielony	green	Neutral	Neutral	hit	n/a
253.9906	n/a	RESPONSE	n/a	n/a	n/a	n/a	n/a	n/a	n/a	green
254.0248	0.5167	FEEDBACK	n/a	n/a	n/a	n/a	n/a	n/a	n/a	n/a
254.5415	1.0167	ITI	n/a	n/a	n/a	n/a	n/a	n/a	n/a	n/a
255.5581	0.5167	FIXCROSS	n/a	n/a	n/a	n/a	n/a	n/a	n/a	n/a
256.0748	0.6667	T_COLOR_NAME	4	Neutral	niebieski	blue	Neutral	Neutral	hit	n/a
256.7075	n/a	RESPONSE	n/a	n/a	n/a	n/a	n/a	n/a	n/a	blue
256.7415	0.5167	FEEDBACK	n/a	n/a	n/a	n/a	n/a	n/a	n/a	n/a
257.2581	1.0167	ITI	n/a	n/a	n/a	n/a	n/a	n/a	n/a	n/a
258.2748	0.5167	FIXCROSS	n/a	n/a	n/a	n/a	n/a	n/a	n/a	n/a
258.7915	1.0667	T_COLOR_NAME	5	Incongruent	zielony	green	niebieski	blue	hit	n/a
259.8239	n/a	RESPONSE	n/a	n/a	n/a	n/a	n/a	n/a	n/a	green
259.8582	0.5167	FEEDBACK	n/a	n/a	n/a	n/a	n/a	n/a	n/a	n/a
260.3748	1.0167	ITI	n/a	n/a	n/a	n/a	n/a	n/a	n/a	n/a
261.3915	0.5167	FIXCROSS	n/a	n/a	n/a	n/a	n/a	n/a	n/a	n/a
261.9082	0.8833	T_COLOR_NAME	6	Neutral	żółty	yellow	Neutral	Neutral	hit	n/a
262.7644	n/a	RESPONSE	n/a	n/a	n/a	n/a	n/a	n/a	n/a	yellow
262.7915	0.5167	FEEDBACK	n/a	n/a	n/a	n/a	n/a	n/a	n/a	n/a
263.3082	1.0167	ITI	n/a	n/a	n/a	n/a	n/a	n/a	n/a	n/a
264.3249	0.5167	FIXCROSS	n/a	n/a	n/a	n/a	n/a	n/a	n/a	n/a
264.8415	0.9167	T_COLOR_NAME	7	Incongruent	niebieski	blue	żółty	yellow	hit	n/a
265.737	n/a	RESPONSE	n/a	n/a	n/a	n/a	n/a	n/a	n/a	blue
265.7582	0.5167	FEEDBACK	n/a	n/a	n/a	n/a	n/a	n/a	n/a	n/a
266.2749	1.0167	ITI	n/a	n/a	n/a	n/a	n/a	n/a	n/a	n/a
267.2915	0.5167	FIXCROSS	n/a	n/a	n/a	n/a	n/a	n/a	n/a	n/a
267.8082	0.9	T_COLOR_NAME	8	Neutral	zielony	green	Neutral	Neutral	hit	n/a
268.6776	n/a	RESPONSE	n/a	n/a	n/a	n/a	n/a	n/a	n/a	green
268.7082	0.5167	FEEDBACK	n/a	n/a	n/a	n/a	n/a	n/a	n/a	n/a
269.2249	1.0167	ITI	n/a	n/a	n/a	n/a	n/a	n/a	n/a	n/a
270.2416	0.5167	FIXCROSS	n/a	n/a	n/a	n/a	n/a	n/a	n/a	n/a
270.7582	0.7833	T_COLOR_NAME	9	Incongruent	czerwony	red	niebieski	blue	hit	n/a
271.5064	n/a	RESPONSE	n/a	n/a	n/a	n/a	n/a	n/a	n/a	red
271.5416	0.5167	FEEDBACK	n/a	n/a	n/a	n/a	n/a	n/a	n/a	n/a
272.0583	1.0167	ITI	n/a	n/a	n/a	n/a	n/a	n/a	n/a	n/a
273.0749	0.5167	FIXCROSS	n/a	n/a	n/a	n/a	n/a	n/a	n/a	n/a
273.5916	1.8334	T_COLOR_NAME	10	Incongruent	niebieski	blue	zielony	green	hit	n/a
275.4059	n/a	RESPONSE	n/a	n/a	n/a	n/a	n/a	n/a	n/a	blue
275.4249	0.5167	FEEDBACK	n/a	n/a	n/a	n/a	n/a	n/a	n/a	n/a
275.9416	1.0167	ITI	n/a	n/a	n/a	n/a	n/a	n/a	n/a	n/a
276.9583	0.5167	FIXCROSS	n/a	n/a	n/a	n/a	n/a	n/a	n/a	n/a
277.475	0.7833	T_COLOR_NAME	11	Neutral	czerwony	red	Neutral	Neutral	hit	n/a
278.2345	n/a	RESPONSE	n/a	n/a	n/a	n/a	n/a	n/a	n/a	red
278.2583	0.5167	FEEDBACK	n/a	n/a	n/a	n/a	n/a	n/a	n/a	n/a
278.775	1.0167	ITI	n/a	n/a	n/a	n/a	n/a	n/a	n/a	n/a
279.7916	0.5167	FIXCROSS	n/a	n/a	n/a	n/a	n/a	n/a	n/a	n/a
280.3083	0.7333	T_COLOR_NAME	12	Neutral	zielony	green	Neutral	Neutral	hit	n/a
281.0154	n/a	RESPONSE	n/a	n/a	n/a	n/a	n/a	n/a	n/a	green
281.0416	0.5167	FEEDBACK	n/a	n/a	n/a	n/a	n/a	n/a	n/a	n/a
281.5583	1.0333	ITI	n/a	n/a	n/a	n/a	n/a	n/a	n/a	n/a
284.2436	n/a	RESPONSE	n/a	n/a	n/a	n/a	n/a	n/a	n/a	n/a
284.3083	1.0167	ITI	n/a	n/a	n/a	n/a	n/a	n/a	n/a	n/a
285.325	0.5167	FIXCROSS	n/a	n/a	n/a	n/a	n/a	n/a	n/a	n/a
285.8417	0.7167	COLOR_NAME	1	Neutral	czerwony	red	Neutral	Neutral	hit	n/a
286.5289	n/a	RESPONSE	n/a	n/a	n/a	n/a	n/a	n/a	n/a	red
286.5584	1.0167	ITI	n/a	n/a	n/a	n/a	n/a	n/a	n/a	n/a
287.575	0.5167	FIXCROSS	n/a	n/a	n/a	n/a	n/a	n/a	n/a	n/a
288.0917	0.9	COLOR_NAME	2	Incongruent	czerwony	red	żółty	yellow	hit	n/a
288.9581	n/a	RESPONSE	n/a	n/a	n/a	n/a	n/a	n/a	n/a	red
288.9917	1.0167	ITI	n/a	n/a	n/a	n/a	n/a	n/a	n/a	n/a
290.0084	0.5167	FIXCROSS	n/a	n/a	n/a	n/a	n/a	n/a	n/a	n/a
290.5251	0.7167	COLOR_NAME	3	Neutral	zielony	green	Neutral	Neutral	hit	n/a
291.2115	n/a	RESPONSE	n/a	n/a	n/a	n/a	n/a	n/a	n/a	green
291.2417	1.0167	ITI	n/a	n/a	n/a	n/a	n/a	n/a	n/a	n/a
292.2584	0.5167	FIXCROSS	n/a	n/a	n/a	n/a	n/a	n/a	n/a	n/a
292.7751	0.9	COLOR_NAME	4	Incongruent	niebieski	blue	czerwony	red	hit	n/a
293.6566	n/a	RESPONSE	n/a	n/a	n/a	n/a	n/a	n/a	n/a	blue
293.6751	1.0167	ITI	n/a	n/a	n/a	n/a	n/a	n/a	n/a	n/a
294.6917	0.5167	FIXCROSS	n/a	n/a	n/a	n/a	n/a	n/a	n/a	n/a
295.2084	0.85	COLOR_NAME	5	Neutral	zielony	green	Neutral	Neutral	hit	n/a
296.0378	n/a	RESPONSE	n/a	n/a	n/a	n/a	n/a	n/a	n/a	green
296.0584	1.0167	ITI	n/a	n/a	n/a	n/a	n/a	n/a	n/a	n/a
297.0751	0.5167	FIXCROSS	n/a	n/a	n/a	n/a	n/a	n/a	n/a	n/a
297.5918	0.8333	COLOR_NAME	6	Incongruent	niebieski	blue	zielony	green	hit	n/a
298.403	n/a	RESPONSE	n/a	n/a	n/a	n/a	n/a	n/a	n/a	blue
298.4251	1.0167	ITI	n/a	n/a	n/a	n/a	n/a	n/a	n/a	n/a
299.4418	0.5167	FIXCROSS	n/a	n/a	n/a	n/a	n/a	n/a	n/a	n/a
299.9585	0.9667	COLOR_NAME	7	Incongruent	żółty	yellow	czerwony	red	hit	n/a
300.8961	n/a	RESPONSE	n/a	n/a	n/a	n/a	n/a	n/a	n/a	yellow
300.9251	1.0167	ITI	n/a	n/a	n/a	n/a	n/a	n/a	n/a	n/a
301.9418	0.5167	FIXCROSS	n/a	n/a	n/a	n/a	n/a	n/a	n/a	n/a
302.4585	1.25	COLOR_NAME	8	Incongruent	zielony	green	czerwony	red	hit	n/a
303.677	n/a	RESPONSE	n/a	n/a	n/a	n/a	n/a	n/a	n/a	green
303.7085	1.0167	ITI	n/a	n/a	n/a	n/a	n/a	n/a	n/a	n/a
304.7252	0.5167	FIXCROSS	n/a	n/a	n/a	n/a	n/a	n/a	n/a	n/a
305.2418	0.9334	COLOR_NAME	9	Incongruent	czerwony	red	niebieski	blue	hit	n/a
306.1539	n/a	RESPONSE	n/a	n/a	n/a	n/a	n/a	n/a	n/a	red
306.1752	1.0167	ITI	n/a	n/a	n/a	n/a	n/a	n/a	n/a	n/a
307.1918	0.5167	FIXCROSS	n/a	n/a	n/a	n/a	n/a	n/a	n/a	n/a
307.7085	1.1167	COLOR_NAME	10	Neutral	zielony	green	Neutral	Neutral	hit	n/a
308.8069	n/a	RESPONSE	n/a	n/a	n/a	n/a	n/a	n/a	n/a	green
308.8252	1.0167	ITI	n/a	n/a	n/a	n/a	n/a	n/a	n/a	n/a
309.8419	0.5167	FIXCROSS	n/a	n/a	n/a	n/a	n/a	n/a	n/a	n/a
310.3585	0.8	COLOR_NAME	11	Neutral	niebieski	blue	Neutral	Neutral	hit	n/a
311.1401	n/a	RESPONSE	n/a	n/a	n/a	n/a	n/a	n/a	n/a	blue
311.1585	1.0167	ITI	n/a	n/a	n/a	n/a	n/a	n/a	n/a	n/a
312.1752	0.5167	FIXCROSS	n/a	n/a	n/a	n/a	n/a	n/a	n/a	n/a
312.6919	0.6833	COLOR_NAME	12	Neutral	zielony	green	Neutral	Neutral	hit	n/a
313.3456	n/a	RESPONSE	n/a	n/a	n/a	n/a	n/a	n/a	n/a	green
313.3752	1.0167	ITI	n/a	n/a	n/a	n/a	n/a	n/a	n/a	n/a
314.3919	0.5167	FIXCROSS	n/a	n/a	n/a	n/a	n/a	n/a	n/a	n/a
314.9086	1.9	COLOR_NAME	13	Incongruent	żółty	yellow	zielony	green	hit	n/a
316.7816	n/a	RESPONSE	n/a	n/a	n/a	n/a	n/a	n/a	n/a	yellow
316.8086	1.0167	ITI	n/a	n/a	n/a	n/a	n/a	n/a	n/a	n/a
317.8252	0.5167	FIXCROSS	n/a	n/a	n/a	n/a	n/a	n/a	n/a	n/a
318.3419	0.9834	COLOR_NAME	14	Incongruent	zielony	green	żółty	yellow	hit	n/a
319.3066	n/a	RESPONSE	n/a	n/a	n/a	n/a	n/a	n/a	n/a	green
319.3253	1.0167	ITI	n/a	n/a	n/a	n/a	n/a	n/a	n/a	n/a
320.3419	0.5167	FIXCROSS	n/a	n/a	n/a	n/a	n/a	n/a	n/a	n/a
320.8586	1.0667	COLOR_NAME	15	Neutral	żółty	yellow	Neutral	Neutral	hit	n/a
321.8956	n/a	RESPONSE	n/a	n/a	n/a	n/a	n/a	n/a	n/a	yellow
321.9253	1.0167	ITI	n/a	n/a	n/a	n/a	n/a	n/a	n/a	n/a
322.942	0.5167	FIXCROSS	n/a	n/a	n/a	n/a	n/a	n/a	n/a	n/a
323.4586	0.7833	COLOR_NAME	16	Neutral	niebieski	blue	Neutral	Neutral	hit	n/a
324.2128	n/a	RESPONSE	n/a	n/a	n/a	n/a	n/a	n/a	n/a	blue
324.242	1.0167	ITI	n/a	n/a	n/a	n/a	n/a	n/a	n/a	n/a
325.2586	0.5167	FIXCROSS	n/a	n/a	n/a	n/a	n/a	n/a	n/a	n/a
325.7753	0.8167	COLOR_NAME	17	Neutral	czerwony	red	Neutral	Neutral	hit	n/a
326.5621	n/a	RESPONSE	n/a	n/a	n/a	n/a	n/a	n/a	n/a	red
326.592	1.0167	ITI	n/a	n/a	n/a	n/a	n/a	n/a	n/a	n/a
327.6087	0.5167	FIXCROSS	n/a	n/a	n/a	n/a	n/a	n/a	n/a	n/a
328.1253	0.9667	COLOR_NAME	18	Incongruent	niebieski	blue	żółty	yellow	hit	n/a
329.0711	n/a	RESPONSE	n/a	n/a	n/a	n/a	n/a	n/a	n/a	blue
329.092	1.0167	ITI	n/a	n/a	n/a	n/a	n/a	n/a	n/a	n/a
330.1087	0.5167	FIXCROSS	n/a	n/a	n/a	n/a	n/a	n/a	n/a	n/a
330.6253	1.3333	COLOR_NAME	19	Neutral	zielony	green	Neutral	Neutral	hit	n/a
331.9318	n/a	RESPONSE	n/a	n/a	n/a	n/a	n/a	n/a	n/a	green
331.9587	1.0167	ITI	n/a	n/a	n/a	n/a	n/a	n/a	n/a	n/a
332.9754	0.5167	FIXCROSS	n/a	n/a	n/a	n/a	n/a	n/a	n/a	n/a
333.492	0.8167	COLOR_NAME	20	Incongruent	niebieski	blue	zielony	green	hit	n/a
334.2811	n/a	RESPONSE	n/a	n/a	n/a	n/a	n/a	n/a	n/a	blue
334.3087	1.0167	ITI	n/a	n/a	n/a	n/a	n/a	n/a	n/a	n/a
335.3254	0.5167	FIXCROSS	n/a	n/a	n/a	n/a	n/a	n/a	n/a	n/a
335.8421	0.75	COLOR_NAME	21	Incongruent	czerwony	red	niebieski	blue	hit	n/a
336.5666	n/a	RESPONSE	n/a	n/a	n/a	n/a	n/a	n/a	n/a	red
336.5921	1.0167	ITI	n/a	n/a	n/a	n/a	n/a	n/a	n/a	n/a
337.6087	0.5167	FIXCROSS	n/a	n/a	n/a	n/a	n/a	n/a	n/a	n/a
338.1254	1.1667	COLOR_NAME	22	Neutral	żółty	yellow	Neutral	Neutral	hit	n/a
339.2673	n/a	RESPONSE	n/a	n/a	n/a	n/a	n/a	n/a	n/a	yellow
339.2921	1.0167	ITI	n/a	n/a	n/a	n/a	n/a	n/a	n/a	n/a
340.3087	0.5167	FIXCROSS	n/a	n/a	n/a	n/a	n/a	n/a	n/a	n/a
340.8254	0.8	COLOR_NAME	23	Neutral	niebieski	blue	Neutral	Neutral	hit	n/a
341.6005	n/a	RESPONSE	n/a	n/a	n/a	n/a	n/a	n/a	n/a	blue
341.6254	1.0167	ITI	n/a	n/a	n/a	n/a	n/a	n/a	n/a	n/a
342.6421	0.5167	FIXCROSS	n/a	n/a	n/a	n/a	n/a	n/a	n/a	n/a
343.1588	0.7333	COLOR_NAME	24	Incongruent	czerwony	red	zielony	green	hit	n/a
343.8699	n/a	RESPONSE	n/a	n/a	n/a	n/a	n/a	n/a	n/a	red
343.8921	1.0167	ITI	n/a	n/a	n/a	n/a	n/a	n/a	n/a	n/a
344.9088	0.5167	FIXCROSS	n/a	n/a	n/a	n/a	n/a	n/a	n/a	n/a
345.4254	0.8167	COLOR_NAME	25	Neutral	żółty	yellow	Neutral	Neutral	hit	n/a
346.2192	n/a	RESPONSE	n/a	n/a	n/a	n/a	n/a	n/a	n/a	yellow
346.2421	1.0167	ITI	n/a	n/a	n/a	n/a	n/a	n/a	n/a	n/a
347.2588	0.5167	FIXCROSS	n/a	n/a	n/a	n/a	n/a	n/a	n/a	n/a
347.7755	0.8167	COLOR_NAME	26	Incongruent	żółty	yellow	zielony	green	hit	n/a
348.5684	n/a	RESPONSE	n/a	n/a	n/a	n/a	n/a	n/a	n/a	yellow
348.5921	1.0167	ITI	n/a	n/a	n/a	n/a	n/a	n/a	n/a	n/a
349.6088	0.5167	FIXCROSS	n/a	n/a	n/a	n/a	n/a	n/a	n/a	n/a
350.1255	0.5	COLOR_NAME	27	Neutral	czerwony	red	Neutral	Neutral	hit	n/a
350.598	n/a	RESPONSE	n/a	n/a	n/a	n/a	n/a	n/a	n/a	red
350.6255	1.0167	ITI	n/a	n/a	n/a	n/a	n/a	n/a	n/a	n/a
351.6422	0.5167	FIXCROSS	n/a	n/a	n/a	n/a	n/a	n/a	n/a	n/a
352.1588	0.6667	COLOR_NAME	28	Neutral	czerwony	red	Neutral	Neutral	hit	n/a
352.8034	n/a	RESPONSE	n/a	n/a	n/a	n/a	n/a	n/a	n/a	red
352.8255	1.0167	ITI	n/a	n/a	n/a	n/a	n/a	n/a	n/a	n/a
353.8422	0.5167	FIXCROSS	n/a	n/a	n/a	n/a	n/a	n/a	n/a	n/a
354.3588	0.6667	COLOR_NAME	29	Neutral	żółty	yellow	Neutral	Neutral	hit	n/a
354.9928	n/a	RESPONSE	n/a	n/a	n/a	n/a	n/a	n/a	n/a	yellow
355.0255	1.0166	ITI	n/a	n/a	n/a	n/a	n/a	n/a	n/a	n/a
356.0421	0.5167	FIXCROSS	n/a	n/a	n/a	n/a	n/a	n/a	n/a	n/a
356.5589	0.85	COLOR_NAME	30	Neutral	żółty	yellow	Neutral	Neutral	hit	n/a
357.3901	n/a	RESPONSE	n/a	n/a	n/a	n/a	n/a	n/a	n/a	yellow
357.4089	1.0167	ITI	n/a	n/a	n/a	n/a	n/a	n/a	n/a	n/a
358.4255	0.5167	FIXCROSS	n/a	n/a	n/a	n/a	n/a	n/a	n/a	n/a
358.9422	0.8833	COLOR_NAME	31	Incongruent	niebieski	blue	czerwony	red	hit	n/a
359.8033	n/a	RESPONSE	n/a	n/a	n/a	n/a	n/a	n/a	n/a	blue
359.8256	1.0167	ITI	n/a	n/a	n/a	n/a	n/a	n/a	n/a	n/a
360.8422	0.5167	FIXCROSS	n/a	n/a	n/a	n/a	n/a	n/a	n/a	n/a
361.3589	0.7	COLOR_NAME	32	Neutral	czerwony	red	Neutral	Neutral	hit	n/a
362.0406	n/a	RESPONSE	n/a	n/a	n/a	n/a	n/a	n/a	n/a	red
362.0589	1.0167	ITI	n/a	n/a	n/a	n/a	n/a	n/a	n/a	n/a
363.0756	0.5167	FIXCROSS	n/a	n/a	n/a	n/a	n/a	n/a	n/a	n/a
363.5923	1.2167	COLOR_NAME	33	Incongruent	zielony	green	niebieski	blue	hit	n/a
364.7894	n/a	RESPONSE	n/a	n/a	n/a	n/a	n/a	n/a	n/a	green
364.8089	1.0167	ITI	n/a	n/a	n/a	n/a	n/a	n/a	n/a	n/a
365.8256	0.5167	FIXCROSS	n/a	n/a	n/a	n/a	n/a	n/a	n/a	n/a
366.3423	0.7	COLOR_NAME	34	Neutral	niebieski	blue	Neutral	Neutral	hit	n/a
367.0108	n/a	RESPONSE	n/a	n/a	n/a	n/a	n/a	n/a	n/a	blue
367.0423	1.0167	ITI	n/a	n/a	n/a	n/a	n/a	n/a	n/a	n/a
368.059	0.5167	FIXCROSS	n/a	n/a	n/a	n/a	n/a	n/a	n/a	n/a
368.5756	0.7333	COLOR_NAME	35	Incongruent	niebieski	blue	żółty	yellow	hit	n/a
369.2802	n/a	RESPONSE	n/a	n/a	n/a	n/a	n/a	n/a	n/a	blue
369.309	1.0167	ITI	n/a	n/a	n/a	n/a	n/a	n/a	n/a	n/a
370.3256	0.5167	FIXCROSS	n/a	n/a	n/a	n/a	n/a	n/a	n/a	n/a
370.8423	0.7	COLOR_NAME	36	Neutral	czerwony	red	Neutral	Neutral	hit	n/a
371.5175	n/a	RESPONSE	n/a	n/a	n/a	n/a	n/a	n/a	n/a	red
371.5423	1.0167	ITI	n/a	n/a	n/a	n/a	n/a	n/a	n/a	n/a
372.559	0.5167	FIXCROSS	n/a	n/a	n/a	n/a	n/a	n/a	n/a	n/a
373.0757	0.6833	COLOR_NAME	37	Neutral	czerwony	red	Neutral	Neutral	hit	n/a
373.739	n/a	RESPONSE	n/a	n/a	n/a	n/a	n/a	n/a	n/a	red
373.759	1.0167	ITI	n/a	n/a	n/a	n/a	n/a	n/a	n/a	n/a
374.7757	0.5167	FIXCROSS	n/a	n/a	n/a	n/a	n/a	n/a	n/a	n/a
375.2923	0.9	COLOR_NAME	38	Incongruent	zielony	green	czerwony	red	hit	n/a
376.1681	n/a	RESPONSE	n/a	n/a	n/a	n/a	n/a	n/a	n/a	green
376.1923	1.0167	ITI	n/a	n/a	n/a	n/a	n/a	n/a	n/a	n/a
377.209	0.5167	FIXCROSS	n/a	n/a	n/a	n/a	n/a	n/a	n/a	n/a
377.7257	0.8	COLOR_NAME	39	Neutral	żółty	yellow	Neutral	Neutral	hit	n/a
378.5014	n/a	RESPONSE	n/a	n/a	n/a	n/a	n/a	n/a	n/a	yellow
378.5257	1.0167	ITI	n/a	n/a	n/a	n/a	n/a	n/a	n/a	n/a
379.5424	0.5167	FIXCROSS	n/a	n/a	n/a	n/a	n/a	n/a	n/a	n/a
380.059	1.5833	COLOR_NAME	40	Incongruent	niebieski	blue	czerwony	red	hit	n/a
381.6178	n/a	RESPONSE	n/a	n/a	n/a	n/a	n/a	n/a	n/a	blue
381.6424	1.0167	ITI	n/a	n/a	n/a	n/a	n/a	n/a	n/a	n/a
382.6591	0.5167	FIXCROSS	n/a	n/a	n/a	n/a	n/a	n/a	n/a	n/a
383.1757	1.0667	COLOR_NAME	41	Neutral	zielony	green	Neutral	Neutral	hit	n/a
384.2227	n/a	RESPONSE	n/a	n/a	n/a	n/a	n/a	n/a	n/a	green
384.2424	1.0167	ITI	n/a	n/a	n/a	n/a	n/a	n/a	n/a	n/a
385.2591	0.5167	FIXCROSS	n/a	n/a	n/a	n/a	n/a	n/a	n/a	n/a
385.7757	0.7333	COLOR_NAME	42	Neutral	czerwony	red	Neutral	Neutral	hit	n/a
386.4761	n/a	RESPONSE	n/a	n/a	n/a	n/a	n/a	n/a	n/a	red
386.5091	1.0167	ITI	n/a	n/a	n/a	n/a	n/a	n/a	n/a	n/a
387.5258	0.5167	FIXCROSS	n/a	n/a	n/a	n/a	n/a	n/a	n/a	n/a
388.0424	0.85	COLOR_NAME	43	Neutral	niebieski	blue	Neutral	Neutral	hit	n/a
388.8573	n/a	RESPONSE	n/a	n/a	n/a	n/a	n/a	n/a	n/a	blue
388.8924	1.0167	ITI	n/a	n/a	n/a	n/a	n/a	n/a	n/a	n/a
389.9091	0.5167	FIXCROSS	n/a	n/a	n/a	n/a	n/a	n/a	n/a	n/a
390.4258	1.0833	COLOR_NAME	44	Incongruent	zielony	green	niebieski	blue	incorrect	n/a
391.4783	n/a	RESPONSE	n/a	n/a	n/a	n/a	n/a	n/a	n/a	yellow
391.5091	1.0167	ITI	n/a	n/a	n/a	n/a	n/a	n/a	n/a	n/a
392.5258	0.5167	FIXCROSS	n/a	n/a	n/a	n/a	n/a	n/a	n/a	n/a
393.0425	2.2833	COLOR_NAME	45	Neutral	zielony	green	Neutral	Neutral	hit	n/a
395.2979	n/a	RESPONSE	n/a	n/a	n/a	n/a	n/a	n/a	n/a	green
395.3258	1.0167	ITI	n/a	n/a	n/a	n/a	n/a	n/a	n/a	n/a
396.3425	0.5167	FIXCROSS	n/a	n/a	n/a	n/a	n/a	n/a	n/a	n/a
396.8592	0.6333	COLOR_NAME	46	Incongruent	czerwony	red	żółty	yellow	hit	n/a
397.4712	n/a	RESPONSE	n/a	n/a	n/a	n/a	n/a	n/a	n/a	red
397.4925	1.0167	ITI	n/a	n/a	n/a	n/a	n/a	n/a	n/a	n/a
398.5092	0.5167	FIXCROSS	n/a	n/a	n/a	n/a	n/a	n/a	n/a	n/a
399.0258	0.6167	COLOR_NAME	47	Neutral	niebieski	blue	Neutral	Neutral	hit	n/a
399.6128	n/a	RESPONSE	n/a	n/a	n/a	n/a	n/a	n/a	n/a	blue
399.6425	1.0167	ITI	n/a	n/a	n/a	n/a	n/a	n/a	n/a	n/a
400.6592	0.5167	FIXCROSS	n/a	n/a	n/a	n/a	n/a	n/a	n/a	n/a
401.1759	0.95	COLOR_NAME	48	Incongruent	zielony	green	żółty	yellow	hit	n/a
402.1058	n/a	RESPONSE	n/a	n/a	n/a	n/a	n/a	n/a	n/a	green
402.1259	1.0167	ITI	n/a	n/a	n/a	n/a	n/a	n/a	n/a	n/a
403.1425	0.5167	FIXCROSS	n/a	n/a	n/a	n/a	n/a	n/a	n/a	n/a
403.6592	0.8167	COLOR_NAME	49	Incongruent	czerwony	red	zielony	green	hit	n/a
404.4551	n/a	RESPONSE	n/a	n/a	n/a	n/a	n/a	n/a	n/a	red
404.4759	1.0167	ITI	n/a	n/a	n/a	n/a	n/a	n/a	n/a	n/a
405.4926	0.5167	FIXCROSS	n/a	n/a	n/a	n/a	n/a	n/a	n/a	n/a
406.0092	0.9167	COLOR_NAME	50	Neutral	żółty	yellow	Neutral	Neutral	hit	n/a
406.9002	n/a	RESPONSE	n/a	n/a	n/a	n/a	n/a	n/a	n/a	yellow
406.9259	1.0167	ITI	n/a	n/a	n/a	n/a	n/a	n/a	n/a	n/a
407.9426	0.5167	FIXCROSS	n/a	n/a	n/a	n/a	n/a	n/a	n/a	n/a
408.4592	0.5833	COLOR_NAME	51	Incongruent	czerwony	red	żółty	yellow	hit	n/a
409.0097	n/a	RESPONSE	n/a	n/a	n/a	n/a	n/a	n/a	n/a	red
409.0426	1.0167	ITI	n/a	n/a	n/a	n/a	n/a	n/a	n/a	n/a
410.0593	0.5167	FIXCROSS	n/a	n/a	n/a	n/a	n/a	n/a	n/a	n/a
410.5759	0.8333	COLOR_NAME	52	Incongruent	zielony	green	żółty	yellow	hit	n/a
411.3909	n/a	RESPONSE	n/a	n/a	n/a	n/a	n/a	n/a	n/a	green
411.4093	1.0167	ITI	n/a	n/a	n/a	n/a	n/a	n/a	n/a	n/a
412.4259	0.5167	FIXCROSS	n/a	n/a	n/a	n/a	n/a	n/a	n/a	n/a
412.9426	0.7	COLOR_NAME	53	Neutral	zielony	green	Neutral	Neutral	hit	n/a
413.6124	n/a	RESPONSE	n/a	n/a	n/a	n/a	n/a	n/a	n/a	green
413.6426	1.0167	ITI	n/a	n/a	n/a	n/a	n/a	n/a	n/a	n/a
414.6593	0.5167	FIXCROSS	n/a	n/a	n/a	n/a	n/a	n/a	n/a	n/a
415.176	0.6167	COLOR_NAME	54	Neutral	zielony	green	Neutral	Neutral	hit	n/a
415.7699	n/a	RESPONSE	n/a	n/a	n/a	n/a	n/a	n/a	n/a	green
415.7926	1.0167	ITI	n/a	n/a	n/a	n/a	n/a	n/a	n/a	n/a
416.8093	0.5167	FIXCROSS	n/a	n/a	n/a	n/a	n/a	n/a	n/a	n/a
417.326	0.9667	COLOR_NAME	55	Incongruent	żółty	yellow	czerwony	red	hit	n/a
418.263	n/a	RESPONSE	n/a	n/a	n/a	n/a	n/a	n/a	n/a	yellow
418.2926	1.0167	ITI	n/a	n/a	n/a	n/a	n/a	n/a	n/a	n/a
419.3093	0.5167	FIXCROSS	n/a	n/a	n/a	n/a	n/a	n/a	n/a	n/a
419.826	0.6167	COLOR_NAME	56	Neutral	czerwony	red	Neutral	Neutral	hit	n/a
420.4204	n/a	RESPONSE	n/a	n/a	n/a	n/a	n/a	n/a	n/a	red
420.4427	1.0167	ITI	n/a	n/a	n/a	n/a	n/a	n/a	n/a	n/a
421.4593	0.5167	FIXCROSS	n/a	n/a	n/a	n/a	n/a	n/a	n/a	n/a
421.976	0.9167	COLOR_NAME	57	Incongruent	czerwony	red	niebieski	blue	hit	n/a
422.8655	n/a	RESPONSE	n/a	n/a	n/a	n/a	n/a	n/a	n/a	red
422.8927	1.0167	ITI	n/a	n/a	n/a	n/a	n/a	n/a	n/a	n/a
423.9094	0.5167	FIXCROSS	n/a	n/a	n/a	n/a	n/a	n/a	n/a	n/a
424.426	0.7167	COLOR_NAME	58	Incongruent	czerwony	red	zielony	green	hit	n/a
425.1189	n/a	RESPONSE	n/a	n/a	n/a	n/a	n/a	n/a	n/a	red
425.1427	1.0167	ITI	n/a	n/a	n/a	n/a	n/a	n/a	n/a	n/a
426.1594	0.5167	FIXCROSS	n/a	n/a	n/a	n/a	n/a	n/a	n/a	n/a
426.676	0.65	COLOR_NAME	59	Incongruent	niebieski	blue	zielony	green	hit	n/a
427.3084	n/a	RESPONSE	n/a	n/a	n/a	n/a	n/a	n/a	n/a	blue
427.3261	1.0167	ITI	n/a	n/a	n/a	n/a	n/a	n/a	n/a	n/a
428.3427	0.5167	FIXCROSS	n/a	n/a	n/a	n/a	n/a	n/a	n/a	n/a
428.8594	1.0333	COLOR_NAME	60	Neutral	żółty	yellow	Neutral	Neutral	hit	n/a
429.8655	n/a	RESPONSE	n/a	n/a	n/a	n/a	n/a	n/a	n/a	yellow
429.8927	1.0167	ITI	n/a	n/a	n/a	n/a	n/a	n/a	n/a	n/a
430.9094	0.5167	FIXCROSS	n/a	n/a	n/a	n/a	n/a	n/a	n/a	n/a
431.4261	0.5167	COLOR_NAME	61	Incongruent	żółty	yellow	niebieski	blue	hit	n/a
431.911	n/a	RESPONSE	n/a	n/a	n/a	n/a	n/a	n/a	n/a	yellow
431.9428	1.0167	ITI	n/a	n/a	n/a	n/a	n/a	n/a	n/a	n/a
432.9594	0.5167	FIXCROSS	n/a	n/a	n/a	n/a	n/a	n/a	n/a	n/a
433.4761	0.6833	COLOR_NAME	62	Neutral	niebieski	blue	Neutral	Neutral	hit	n/a
434.1324	n/a	RESPONSE	n/a	n/a	n/a	n/a	n/a	n/a	n/a	blue
434.1594	1.0167	ITI	n/a	n/a	n/a	n/a	n/a	n/a	n/a	n/a
435.1761	0.5167	FIXCROSS	n/a	n/a	n/a	n/a	n/a	n/a	n/a	n/a
435.6928	0.5667	COLOR_NAME	63	Incongruent	żółty	yellow	niebieski	blue	hit	n/a
436.242	n/a	RESPONSE	n/a	n/a	n/a	n/a	n/a	n/a	n/a	yellow
436.2595	1.0167	ITI	n/a	n/a	n/a	n/a	n/a	n/a	n/a	n/a
437.2761	0.5167	FIXCROSS	n/a	n/a	n/a	n/a	n/a	n/a	n/a	n/a
437.7928	0.6333	COLOR_NAME	64	Incongruent	zielony	green	czerwony	red	hit	n/a
438.3995	n/a	RESPONSE	n/a	n/a	n/a	n/a	n/a	n/a	n/a	green
438.4261	1.0167	ITI	n/a	n/a	n/a	n/a	n/a	n/a	n/a	n/a
439.4428	0.5167	FIXCROSS	n/a	n/a	n/a	n/a	n/a	n/a	n/a	n/a
439.9595	0.65	COLOR_NAME	65	Incongruent	niebieski	blue	żółty	yellow	hit	n/a
440.5889	n/a	RESPONSE	n/a	n/a	n/a	n/a	n/a	n/a	n/a	blue
440.6095	1.0167	ITI	n/a	n/a	n/a	n/a	n/a	n/a	n/a	n/a
441.6261	0.5167	FIXCROSS	n/a	n/a	n/a	n/a	n/a	n/a	n/a	n/a
442.1428	1.0167	COLOR_NAME	66	Neutral	żółty	yellow	Neutral	Neutral	hit	n/a
443.1299	n/a	RESPONSE	n/a	n/a	n/a	n/a	n/a	n/a	n/a	yellow
443.1595	1.0167	ITI	n/a	n/a	n/a	n/a	n/a	n/a	n/a	n/a
444.1762	0.5167	FIXCROSS	n/a	n/a	n/a	n/a	n/a	n/a	n/a	n/a
444.6928	0.8833	COLOR_NAME	67	Neutral	niebieski	blue	Neutral	Neutral	hit	n/a
445.5431	n/a	RESPONSE	n/a	n/a	n/a	n/a	n/a	n/a	n/a	blue
445.5762	1.0167	ITI	n/a	n/a	n/a	n/a	n/a	n/a	n/a	n/a
446.5929	0.5167	FIXCROSS	n/a	n/a	n/a	n/a	n/a	n/a	n/a	n/a
447.1095	1.45	COLOR_NAME	68	Incongruent	żółty	yellow	niebieski	blue	hit	n/a
448.5316	n/a	RESPONSE	n/a	n/a	n/a	n/a	n/a	n/a	n/a	yellow
448.5595	1.0167	ITI	n/a	n/a	n/a	n/a	n/a	n/a	n/a	n/a
449.5762	0.5167	FIXCROSS	n/a	n/a	n/a	n/a	n/a	n/a	n/a	n/a
450.0929	0.7667	COLOR_NAME	69	Incongruent	zielony	green	niebieski	blue	hit	n/a
450.833	n/a	RESPONSE	n/a	n/a	n/a	n/a	n/a	n/a	n/a	green
450.8596	1.0167	ITI	n/a	n/a	n/a	n/a	n/a	n/a	n/a	n/a
451.8762	0.5167	FIXCROSS	n/a	n/a	n/a	n/a	n/a	n/a	n/a	n/a
452.3929	0.65	COLOR_NAME	70	Incongruent	żółty	yellow	czerwony	red	hit	n/a
453.0224	n/a	RESPONSE	n/a	n/a	n/a	n/a	n/a	n/a	n/a	yellow
453.0429	1.0167	ITI	n/a	n/a	n/a	n/a	n/a	n/a	n/a	n/a
454.0596	0.5167	FIXCROSS	n/a	n/a	n/a	n/a	n/a	n/a	n/a	n/a
454.5763	0.6667	COLOR_NAME	71	Neutral	niebieski	blue	Neutral	Neutral	hit	n/a
455.2119	n/a	RESPONSE	n/a	n/a	n/a	n/a	n/a	n/a	n/a	blue
455.2429	1.0167	ITI	n/a	n/a	n/a	n/a	n/a	n/a	n/a	n/a
456.2596	0.5167	FIXCROSS	n/a	n/a	n/a	n/a	n/a	n/a	n/a	n/a
456.7763	0.9833	COLOR_NAME	72	Incongruent	żółty	yellow	zielony	green	hit	n/a
457.7368	n/a	RESPONSE	n/a	n/a	n/a	n/a	n/a	n/a	n/a	yellow
457.7596	1.0333	ITI	n/a	n/a	n/a	n/a	n/a	n/a	n/a	n/a
462.5473	n/a	RESPONSE	n/a	n/a	n/a	n/a	n/a	n/a	n/a	n/a
