onset	duration	trial_type	melody_number	melody_part	key	sound	action
0.0	14.088	CUE_START	n/a	n/a	n/a	n/a	n/a
14.088	7.76	FIXCROSS	n/a	n/a	n/a	n/a	n/a
21.848	6.324	CUE_LISTEN	M1	1	n/a	n/a	n/a
28.172	7.759	FIXCROSS	n/a	n/a	n/a	n/a	n/a
35.93	6.308	CUE_PLAYBACK_RIGHT_HAND	M1	1	n/a	n/a	n/a
36.472	n/a	RESPONSE	M1	1	19	G4	press
37.051	n/a	RESPONSE	M1	1	19	G4	release
37.068	n/a	RESPONSE	M1	1	16	E4	press
37.456	n/a	RESPONSE	M1	1	16	E4	release
37.623	n/a	RESPONSE	M1	1	16	E4	press
38.144	n/a	RESPONSE	M1	1	16	E4	release
38.191	n/a	RESPONSE	M1	1	17	F4	press
38.732	n/a	RESPONSE	M1	1	14	D4	press
38.773	n/a	RESPONSE	M1	1	17	F4	release
39.644	n/a	RESPONSE	M1	1	14	D4	release
39.846	n/a	RESPONSE	M1	1	14	D4	press
40.207	n/a	RESPONSE	M1	1	14	D4	release
40.428	n/a	RESPONSE	M1	1	12	C4	press
40.689	n/a	RESPONSE	M1	1	12	C4	release
40.762	n/a	RESPONSE	M1	1	16	E4	press
40.982	n/a	RESPONSE	M1	1	16	E4	release
41.053	n/a	RESPONSE	M1	1	19	G4	press
41.928	n/a	RESPONSE	M1	1	19	G4	release
42.238	7.758	FIXCROSS	n/a	n/a	n/a	n/a	n/a
49.997	6.325	CUE_LISTEN	M1	2	n/a	n/a	n/a
56.322	7.759	FIXCROSS	n/a	n/a	n/a	n/a	n/a
64.08	6.317	CUE_PLAYBACK_RIGHT_HAND	M1	2	n/a	n/a	n/a
64.856	n/a	RESPONSE	M1	2	19	G4	press
65.387	n/a	RESPONSE	M1	2	16	E4	press
65.424	n/a	RESPONSE	M1	2	19	G4	release
66.232	n/a	RESPONSE	M1	2	16	E4	release
66.398	n/a	RESPONSE	M1	2	16	E4	press
66.801	n/a	RESPONSE	M1	2	16	E4	release
66.999	n/a	RESPONSE	M1	2	17	F4	press
67.543	n/a	RESPONSE	M1	2	17	F4	release
67.568	n/a	RESPONSE	M1	2	14	D4	press
67.891	n/a	RESPONSE	M1	2	14	D4	release
68.117	n/a	RESPONSE	M1	2	14	D4	press
68.414	n/a	RESPONSE	M1	2	14	D4	release
68.666	n/a	RESPONSE	M1	2	12	C4	press
68.877	n/a	RESPONSE	M1	2	12	C4	release
68.998	n/a	RESPONSE	M1	2	16	E4	press
69.309	n/a	RESPONSE	M1	2	16	E4	release
69.312	n/a	RESPONSE	M1	2	12	C4	press
69.752	n/a	RESPONSE	M1	2	12	C4	release
70.397	7.758	FIXCROSS	n/a	n/a	n/a	n/a	n/a
78.155	6.317	CUE_LISTEN	M1	1	n/a	n/a	n/a
84.472	7.758	FIXCROSS	n/a	n/a	n/a	n/a	n/a
92.23	6.325	CUE_PLAYBACK_BOTH_HANDS	M1	1	n/a	n/a	n/a
92.809	n/a	RESPONSE	M1	1	07	G3	press
92.812	n/a	RESPONSE	M1	1	19	G4	press
93.394	n/a	RESPONSE	M1	1	07	G3	release
93.453	n/a	RESPONSE	M1	1	19	G4	release
93.484	n/a	RESPONSE	M1	1	04	E3	press
93.496	n/a	RESPONSE	M1	1	16	E4	press
93.867	n/a	RESPONSE	M1	1	16	E4	release
93.878	n/a	RESPONSE	M1	1	04	E3	release
94.119	n/a	RESPONSE	M1	1	04	E3	press
94.151	n/a	RESPONSE	M1	1	16	E4	press
94.653	n/a	RESPONSE	M1	1	16	E4	release
94.734	n/a	RESPONSE	M1	1	04	E3	release
94.802	n/a	RESPONSE	M1	1	05	F3	press
94.82	n/a	RESPONSE	M1	1	17	F4	press
95.408	n/a	RESPONSE	M1	1	17	F4	release
95.417	n/a	RESPONSE	M1	1	05	F3	release
95.501	n/a	RESPONSE	M1	1	02	D3	press
95.51	n/a	RESPONSE	M1	1	14	D4	press
95.912	n/a	RESPONSE	M1	1	14	D4	release
95.968	n/a	RESPONSE	M1	1	02	D3	release
96.198	n/a	RESPONSE	M1	1	14	D4	press
96.214	n/a	RESPONSE	M1	1	02	D3	press
96.571	n/a	RESPONSE	M1	1	02	D3	release
96.576	n/a	RESPONSE	M1	1	14	D4	release
96.743	n/a	RESPONSE	M1	1	00	C3	press
96.774	n/a	RESPONSE	M1	1	12	C4	press
97.007	n/a	RESPONSE	M1	1	12	C4	release
97.098	n/a	RESPONSE	M1	1	04	E3	press
97.113	n/a	RESPONSE	M1	1	00	C3	release
97.128	n/a	RESPONSE	M1	1	16	E4	press
97.334	n/a	RESPONSE	M1	1	16	E4	release
97.427	n/a	RESPONSE	M1	1	04	E3	release
97.468	n/a	RESPONSE	M1	1	00	C3	press
97.481	n/a	RESPONSE	M1	1	12	C4	press
97.803	n/a	RESPONSE	M1	1	00	C3	release
97.834	n/a	RESPONSE	M1	1	12	C4	release
98.15	n/a	RESPONSE	M1	1	00	C3	press
98.198	n/a	RESPONSE	M1	1	12	C4	press
98.47	n/a	RESPONSE	M1	1	16	E4	press
98.481	n/a	RESPONSE	M1	1	12	C4	release
98.502	n/a	RESPONSE	M1	1	04	E3	press
98.555	7.758	FIXCROSS	n/a	n/a	n/a	n/a	n/a
98.633	n/a	RESPONSE	M1	1	00	C3	release
98.696	n/a	RESPONSE	M1	1	16	E4	release
98.717	n/a	RESPONSE	M1	1	04	E3	release
98.857	n/a	RESPONSE	M1	1	07	G3	press
98.928	n/a	RESPONSE	M1	1	19	G4	press
99.041	n/a	RESPONSE	M1	1	19	G4	release
99.172	n/a	RESPONSE	M1	1	07	G3	release
106.314	6.317	CUE_LISTEN	M1	2	n/a	n/a	n/a
112.63	7.758	FIXCROSS	n/a	n/a	n/a	n/a	n/a
120.389	6.317	CUE_PLAYBACK_BOTH_HANDS	M1	2	n/a	n/a	n/a
120.854	n/a	RESPONSE	M1	2	19	G4	press
120.866	n/a	RESPONSE	M1	2	07	G3	press
121.328	n/a	RESPONSE	M1	2	07	G3	release
121.401	n/a	RESPONSE	M1	2	19	G4	release
121.46	n/a	RESPONSE	M1	2	04	E3	press
121.481	n/a	RESPONSE	M1	2	16	E4	press
121.803	n/a	RESPONSE	M1	2	16	E4	release
121.974	n/a	RESPONSE	M1	2	04	E3	release
122.046	n/a	RESPONSE	M1	2	04	E3	press
122.077	n/a	RESPONSE	M1	2	16	E4	press
122.458	n/a	RESPONSE	M1	2	16	E4	release
122.56	n/a	RESPONSE	M1	2	04	E3	release
122.571	n/a	RESPONSE	M1	2	05	F3	press
122.592	n/a	RESPONSE	M1	2	17	F4	press
123.013	n/a	RESPONSE	M1	2	17	F4	release
123.094	n/a	RESPONSE	M1	2	05	F3	release
123.167	n/a	RESPONSE	M1	2	14	D4	press
123.187	n/a	RESPONSE	M1	2	02	D3	press
123.538	n/a	RESPONSE	M1	2	14	D4	release
123.59	n/a	RESPONSE	M1	2	02	D3	release
123.771	n/a	RESPONSE	M1	2	02	D3	press
123.782	n/a	RESPONSE	M1	2	14	D4	press
124.073	n/a	RESPONSE	M1	2	14	D4	release
124.144	n/a	RESPONSE	M1	2	02	D3	release
124.286	n/a	RESPONSE	M1	2	00	C3	press
124.307	n/a	RESPONSE	M1	2	12	C4	press
124.531	n/a	RESPONSE	M1	2	12	C4	release
124.65	n/a	RESPONSE	M1	2	04	E3	press
124.671	n/a	RESPONSE	M1	2	00	C3	release
124.677	n/a	RESPONSE	M1	2	16	E4	press
124.874	n/a	RESPONSE	M1	2	16	E4	release
124.978	n/a	RESPONSE	M1	2	04	E3	release
125.014	n/a	RESPONSE	M1	2	00	C3	press
125.05	n/a	RESPONSE	M1	2	12	C4	press
125.707	n/a	RESPONSE	M1	2	12	C4	release
125.753	n/a	RESPONSE	M1	2	00	C3	release
126.705	7.758	FIXCROSS	n/a	n/a	n/a	n/a	n/a
134.464	6.325	CUE_LISTEN	M1	1	n/a	n/a	n/a
140.789	7.758	FIXCROSS	n/a	n/a	n/a	n/a	n/a
148.547	6.317	CUE_PLAYBACK_RIGHT_HAND	M1	1	n/a	n/a	n/a
149.038	n/a	RESPONSE	M1	1	19	G4	press
149.54	n/a	RESPONSE	M1	1	19	G4	release
149.611	n/a	RESPONSE	M1	1	16	E4	press
149.933	n/a	RESPONSE	M1	1	16	E4	release
150.123	n/a	RESPONSE	M1	1	16	E4	press
150.517	n/a	RESPONSE	M1	1	17	F4	press
150.576	n/a	RESPONSE	M1	1	16	E4	release
150.998	n/a	RESPONSE	M1	1	14	D4	press
151.06	n/a	RESPONSE	M1	1	17	F4	release
151.873	n/a	RESPONSE	M1	1	14	D4	release
152.002	n/a	RESPONSE	M1	1	14	D4	press
152.426	n/a	RESPONSE	M1	1	14	D4	release
152.666	n/a	RESPONSE	M1	1	12	C4	press
152.986	n/a	RESPONSE	M1	1	16	E4	press
153.03	n/a	RESPONSE	M1	1	12	C4	release
153.301	n/a	RESPONSE	M1	1	16	E4	release
153.32	n/a	RESPONSE	M1	1	19	G4	press
154.143	n/a	RESPONSE	M1	1	19	G4	release
154.864	7.758	FIXCROSS	n/a	n/a	n/a	n/a	n/a
162.622	6.317	CUE_LISTEN	M1	2	n/a	n/a	n/a
168.939	7.759	FIXCROSS	n/a	n/a	n/a	n/a	n/a
176.697	6.325	CUE_PLAYBACK_RIGHT_HAND	M1	2	n/a	n/a	n/a
177.198	n/a	RESPONSE	M1	2	19	G4	press
177.767	n/a	RESPONSE	M1	2	19	G4	release
177.807	n/a	RESPONSE	M1	2	16	E4	press
178.155	n/a	RESPONSE	M1	2	16	E4	release
178.38	n/a	RESPONSE	M1	2	16	E4	press
178.931	n/a	RESPONSE	M1	2	17	F4	press
178.992	n/a	RESPONSE	M1	2	16	E4	release
179.493	n/a	RESPONSE	M1	2	14	D4	press
179.515	n/a	RESPONSE	M1	2	17	F4	release
179.946	n/a	RESPONSE	M1	2	14	D4	release
180.087	n/a	RESPONSE	M1	2	14	D4	press
180.528	n/a	RESPONSE	M1	2	14	D4	release
180.69	n/a	RESPONSE	M1	2	12	C4	press
181.022	n/a	RESPONSE	M1	2	16	E4	press
181.093	n/a	RESPONSE	M1	2	12	C4	release
181.333	n/a	RESPONSE	M1	2	16	E4	release
181.347	n/a	RESPONSE	M1	2	12	C4	press
182.227	n/a	RESPONSE	M1	2	12	C4	release
183.022	7.758	FIXCROSS	n/a	n/a	n/a	n/a	n/a
190.781	6.317	CUE_LISTEN	M1	1	n/a	n/a	n/a
197.097	7.758	FIXCROSS	n/a	n/a	n/a	n/a	n/a
204.856	6.317	CUE_PLAYBACK_BOTH_HANDS	M1	1	n/a	n/a	n/a
205.367	n/a	RESPONSE	M1	1	19	G4	press
205.392	n/a	RESPONSE	M1	1	07	G3	press
206.031	n/a	RESPONSE	M1	1	07	G3	release
206.045	n/a	RESPONSE	M1	1	16	E4	press
206.047	n/a	RESPONSE	M1	1	19	G4	release
206.065	n/a	RESPONSE	M1	1	04	E3	press
206.566	n/a	RESPONSE	M1	1	16	E4	release
206.588	n/a	RESPONSE	M1	1	04	E3	release
206.677	n/a	RESPONSE	M1	1	04	E3	press
206.698	n/a	RESPONSE	M1	1	16	E4	press
207.305	n/a	RESPONSE	M1	1	05	F3	press
207.317	n/a	RESPONSE	M1	1	17	F4	press
207.348	n/a	RESPONSE	M1	1	16	E4	release
207.375	n/a	RESPONSE	M1	1	04	E3	release
207.937	n/a	RESPONSE	M1	1	14	D4	press
207.962	n/a	RESPONSE	M1	1	02	D3	press
207.965	n/a	RESPONSE	M1	1	17	F4	release
208.001	n/a	RESPONSE	M1	1	05	F3	release
208.455	n/a	RESPONSE	M1	1	02	D3	release
208.603	n/a	RESPONSE	M1	1	02	D3	press
208.935	n/a	RESPONSE	M1	1	14	D4	release
208.966	n/a	RESPONSE	M1	1	02	D3	release
209.187	n/a	RESPONSE	M1	1	00	C3	press
209.221	n/a	RESPONSE	M1	1	12	C4	press
209.52	n/a	RESPONSE	M1	1	04	E3	press
209.571	n/a	RESPONSE	M1	1	16	E4	press
209.632	n/a	RESPONSE	M1	1	12	C4	release
209.705	n/a	RESPONSE	M1	1	00	C3	release
209.776	n/a	RESPONSE	M1	1	16	E4	release
209.796	n/a	RESPONSE	M1	1	04	E3	release
209.87	n/a	RESPONSE	M1	1	07	G3	press
209.898	n/a	RESPONSE	M1	1	19	G4	press
210.82	n/a	RESPONSE	M1	1	19	G4	release
210.841	n/a	RESPONSE	M1	1	07	G3	release
211.172	7.758	FIXCROSS	n/a	n/a	n/a	n/a	n/a
218.931	6.325	CUE_LISTEN	M1	2	n/a	n/a	n/a
225.256	7.758	FIXCROSS	n/a	n/a	n/a	n/a	n/a
233.014	6.317	CUE_PLAYBACK_BOTH_HANDS	M1	2	n/a	n/a	n/a
233.49	n/a	RESPONSE	M1	2	07	G3	press
233.492	n/a	RESPONSE	M1	2	19	G4	press
234.092	n/a	RESPONSE	M1	2	04	E3	press
234.095	n/a	RESPONSE	M1	2	16	E4	press
234.145	n/a	RESPONSE	M1	2	19	G4	release
234.147	n/a	RESPONSE	M1	2	07	G3	release
234.517	n/a	RESPONSE	M1	2	04	E3	release
234.558	n/a	RESPONSE	M1	2	16	E4	release
234.693	n/a	RESPONSE	M1	2	04	E3	press
234.703	n/a	RESPONSE	M1	2	16	E4	press
235.28	n/a	RESPONSE	M1	2	17	F4	press
235.308	n/a	RESPONSE	M1	2	05	F3	press
235.315	n/a	RESPONSE	M1	2	16	E4	release
235.367	n/a	RESPONSE	M1	2	04	E3	release
235.872	n/a	RESPONSE	M1	2	14	D4	press
235.886	n/a	RESPONSE	M1	2	17	F4	release
235.898	n/a	RESPONSE	M1	2	02	D3	press
235.976	n/a	RESPONSE	M1	2	05	F3	release
236.346	n/a	RESPONSE	M1	2	02	D3	release
236.372	n/a	RESPONSE	M1	2	14	D4	release
236.517	n/a	RESPONSE	M1	2	14	D4	press
236.52	n/a	RESPONSE	M1	2	02	D3	press
237.001	n/a	RESPONSE	M1	2	02	D3	release
237.004	n/a	RESPONSE	M1	2	14	D4	release
237.082	n/a	RESPONSE	M1	2	00	C3	press
237.105	n/a	RESPONSE	M1	2	12	C4	press
237.397	n/a	RESPONSE	M1	2	12	C4	release
237.402	n/a	RESPONSE	M1	2	04	E3	press
237.441	n/a	RESPONSE	M1	2	16	E4	press
237.471	n/a	RESPONSE	M1	2	00	C3	release
237.633	n/a	RESPONSE	M1	2	16	E4	release
237.675	n/a	RESPONSE	M1	2	04	E3	release
237.766	n/a	RESPONSE	M1	2	12	C4	press
237.775	n/a	RESPONSE	M1	2	00	C3	press
238.727	n/a	RESPONSE	M1	2	00	C3	release
238.758	n/a	RESPONSE	M1	2	12	C4	release
239.331	7.758	FIXCROSS	n/a	n/a	n/a	n/a	n/a
247.089	6.325	CUE_LISTEN	M1	1	n/a	n/a	n/a
253.414	7.758	FIXCROSS	n/a	n/a	n/a	n/a	n/a
261.173	6.317	CUE_PLAYBACK_RIGHT_HAND	M1	1	n/a	n/a	n/a
261.705	n/a	RESPONSE	M1	1	19	G4	press
262.244	n/a	RESPONSE	M1	1	19	G4	release
262.255	n/a	RESPONSE	M1	1	16	E4	press
262.677	n/a	RESPONSE	M1	1	16	E4	release
262.81	n/a	RESPONSE	M1	1	16	E4	press
263.358	n/a	RESPONSE	M1	1	17	F4	press
263.42	n/a	RESPONSE	M1	1	16	E4	release
263.941	n/a	RESPONSE	M1	1	14	D4	press
263.944	n/a	RESPONSE	M1	1	17	F4	release
264.354	n/a	RESPONSE	M1	1	14	D4	release
264.457	n/a	RESPONSE	M1	1	14	D4	press
264.894	n/a	RESPONSE	M1	1	14	D4	release
265.01	n/a	RESPONSE	M1	1	12	C4	press
265.314	n/a	RESPONSE	M1	1	16	E4	press
265.542	n/a	RESPONSE	M1	1	12	C4	release
265.552	n/a	RESPONSE	M1	1	16	E4	release
265.556	n/a	RESPONSE	M1	1	19	G4	press
266.78	n/a	RESPONSE	M1	1	19	G4	release
267.489	7.758	FIXCROSS	n/a	n/a	n/a	n/a	n/a
275.248	6.317	CUE_LISTEN	M1	2	n/a	n/a	n/a
281.564	7.758	FIXCROSS	n/a	n/a	n/a	n/a	n/a
289.323	6.325	CUE_PLAYBACK_RIGHT_HAND	M1	2	n/a	n/a	n/a
289.795	n/a	RESPONSE	M1	2	19	G4	press
290.346	n/a	RESPONSE	M1	2	16	E4	press
290.378	n/a	RESPONSE	M1	2	19	G4	release
291.169	n/a	RESPONSE	M1	2	16	E4	release
291.292	n/a	RESPONSE	M1	2	16	E4	press
291.852	n/a	RESPONSE	M1	2	17	F4	press
291.894	n/a	RESPONSE	M1	2	16	E4	release
292.405	n/a	RESPONSE	M1	2	14	D4	press
292.408	n/a	RESPONSE	M1	2	17	F4	release
292.83	n/a	RESPONSE	M1	2	14	D4	release
292.968	n/a	RESPONSE	M1	2	14	D4	press
293.56	n/a	RESPONSE	M1	2	14	D4	release
293.562	n/a	RESPONSE	M1	2	12	C4	press
293.872	n/a	RESPONSE	M1	2	16	E4	press
293.936	n/a	RESPONSE	M1	2	12	C4	release
294.185	n/a	RESPONSE	M1	2	12	C4	press
294.216	n/a	RESPONSE	M1	2	16	E4	release
294.967	n/a	RESPONSE	M1	2	12	C4	release
295.648	7.758	FIXCROSS	n/a	n/a	n/a	n/a	n/a
303.406	6.317	CUE_LISTEN	M1	1	n/a	n/a	n/a
309.723	7.758	FIXCROSS	n/a	n/a	n/a	n/a	n/a
317.481	6.325	CUE_PLAYBACK_BOTH_HANDS	M1	1	n/a	n/a	n/a
318.0	n/a	RESPONSE	M1	1	19	G4	press
318.015	n/a	RESPONSE	M1	1	07	G3	press
318.602	n/a	RESPONSE	M1	1	04	E3	press
318.624	n/a	RESPONSE	M1	1	16	E4	press
318.654	n/a	RESPONSE	M1	1	07	G3	release
318.664	n/a	RESPONSE	M1	1	19	G4	release
319.055	n/a	RESPONSE	M1	1	04	E3	release
319.066	n/a	RESPONSE	M1	1	16	E4	release
319.209	n/a	RESPONSE	M1	1	04	E3	press
319.228	n/a	RESPONSE	M1	1	16	E4	press
319.782	n/a	RESPONSE	M1	1	05	F3	press
319.801	n/a	RESPONSE	M1	1	17	F4	press
319.862	n/a	RESPONSE	M1	1	16	E4	release
319.874	n/a	RESPONSE	M1	1	04	E3	release
320.387	n/a	RESPONSE	M1	1	17	F4	release
320.396	n/a	RESPONSE	M1	1	14	D4	press
320.407	n/a	RESPONSE	M1	1	02	D3	press
320.469	n/a	RESPONSE	M1	1	05	F3	release
320.87	n/a	RESPONSE	M1	1	02	D3	release
321.021	n/a	RESPONSE	M1	1	02	D3	press
321.422	n/a	RESPONSE	M1	1	14	D4	release
321.434	n/a	RESPONSE	M1	1	02	D3	release
321.64	n/a	RESPONSE	M1	1	00	C3	press
321.669	n/a	RESPONSE	M1	1	12	C4	press
321.922	n/a	RESPONSE	M1	1	04	E3	press
321.981	n/a	RESPONSE	M1	1	16	E4	press
322.025	n/a	RESPONSE	M1	1	12	C4	release
322.094	n/a	RESPONSE	M1	1	00	C3	release
322.165	n/a	RESPONSE	M1	1	16	E4	release
322.196	n/a	RESPONSE	M1	1	04	E3	release
322.269	n/a	RESPONSE	M1	1	07	G3	press
322.309	n/a	RESPONSE	M1	1	19	G4	press
323.29	n/a	RESPONSE	M1	1	19	G4	release
323.334	n/a	RESPONSE	M1	1	07	G3	release
323.806	7.758	FIXCROSS	n/a	n/a	n/a	n/a	n/a
331.564	6.317	CUE_LISTEN	M1	2	n/a	n/a	n/a
337.881	7.758	FIXCROSS	n/a	n/a	n/a	n/a	n/a
345.64	6.317	CUE_PLAYBACK_BOTH_HANDS	M1	2	n/a	n/a	n/a
346.157	n/a	RESPONSE	M1	2	19	G4	press
346.164	n/a	RESPONSE	M1	2	07	G3	press
346.777	n/a	RESPONSE	M1	2	07	G3	release
346.782	n/a	RESPONSE	M1	2	19	G4	release
346.786	n/a	RESPONSE	M1	2	04	E3	press
346.791	n/a	RESPONSE	M1	2	16	E4	press
347.232	n/a	RESPONSE	M1	2	04	E3	release
347.257	n/a	RESPONSE	M1	2	16	E4	release
347.396	n/a	RESPONSE	M1	2	04	E3	press
347.402	n/a	RESPONSE	M1	2	16	E4	press
348.042	n/a	RESPONSE	M1	2	05	F3	press
348.067	n/a	RESPONSE	M1	2	17	F4	press
348.084	n/a	RESPONSE	M1	2	16	E4	release
348.097	n/a	RESPONSE	M1	2	04	E3	release
348.697	n/a	RESPONSE	M1	2	14	D4	press
348.706	n/a	RESPONSE	M1	2	02	D3	press
348.708	n/a	RESPONSE	M1	2	17	F4	release
348.751	n/a	RESPONSE	M1	2	05	F3	release
349.13	n/a	RESPONSE	M1	2	02	D3	release
349.174	n/a	RESPONSE	M1	2	14	D4	release
349.352	n/a	RESPONSE	M1	2	14	D4	press
349.364	n/a	RESPONSE	M1	2	02	D3	press
349.785	n/a	RESPONSE	M1	2	14	D4	release
349.796	n/a	RESPONSE	M1	2	02	D3	release
349.937	n/a	RESPONSE	M1	2	00	C3	press
349.98	n/a	RESPONSE	M1	2	12	C4	press
350.212	n/a	RESPONSE	M1	2	12	C4	release
350.281	n/a	RESPONSE	M1	2	00	C3	release
350.332	n/a	RESPONSE	M1	2	04	E3	press
350.346	n/a	RESPONSE	M1	2	16	E4	press
350.615	n/a	RESPONSE	M1	2	16	E4	release
350.626	n/a	RESPONSE	M1	2	04	E3	release
350.699	n/a	RESPONSE	M1	2	00	C3	press
350.749	n/a	RESPONSE	M1	2	12	C4	press
351.692	n/a	RESPONSE	M1	2	00	C3	release
351.695	n/a	RESPONSE	M1	2	12	C4	release
351.956	7.758	FIXCROSS	n/a	n/a	n/a	n/a	n/a
359.715	6.317	CUE_LISTEN	M1	1	n/a	n/a	n/a
366.031	7.758	FIXCROSS	n/a	n/a	n/a	n/a	n/a
373.79	6.325	CUE_PLAYBACK_RIGHT_HAND	M1	1	n/a	n/a	n/a
374.33	n/a	RESPONSE	M1	1	19	G4	press
374.874	n/a	RESPONSE	M1	1	19	G4	release
374.924	n/a	RESPONSE	M1	1	16	E4	press
375.272	n/a	RESPONSE	M1	1	16	E4	release
375.492	n/a	RESPONSE	M1	1	16	E4	press
375.994	n/a	RESPONSE	M1	1	16	E4	release
376.099	n/a	RESPONSE	M1	1	17	F4	press
376.645	n/a	RESPONSE	M1	1	17	F4	release
376.687	n/a	RESPONSE	M1	1	14	D4	press
376.999	n/a	RESPONSE	M1	1	14	D4	release
377.292	n/a	RESPONSE	M1	1	14	D4	press
377.762	n/a	RESPONSE	M1	1	14	D4	release
377.902	n/a	RESPONSE	M1	1	12	C4	press
378.19	n/a	RESPONSE	M1	1	12	C4	release
378.227	n/a	RESPONSE	M1	1	16	E4	press
378.49	n/a	RESPONSE	M1	1	16	E4	release
378.56	n/a	RESPONSE	M1	1	12	C4	press
379.03	n/a	RESPONSE	M1	1	12	C4	release
380.115	7.758	FIXCROSS	n/a	n/a	n/a	n/a	n/a
387.873	6.317	CUE_LISTEN	M1	2	n/a	n/a	n/a
394.19	7.758	FIXCROSS	n/a	n/a	n/a	n/a	n/a
401.948	6.317	CUE_PLAYBACK_RIGHT_HAND	M1	2	n/a	n/a	n/a
402.474	n/a	RESPONSE	M1	2	19	G4	press
403.015	n/a	RESPONSE	M1	2	19	G4	release
403.066	n/a	RESPONSE	M1	2	16	E4	press
403.46	n/a	RESPONSE	M1	2	16	E4	release
403.649	n/a	RESPONSE	M1	2	16	E4	press
404.19	n/a	RESPONSE	M1	2	16	E4	release
404.192	n/a	RESPONSE	M1	2	17	F4	press
404.728	n/a	RESPONSE	M1	2	17	F4	release
404.746	n/a	RESPONSE	M1	2	14	D4	press
405.164	n/a	RESPONSE	M1	2	14	D4	release
405.298	n/a	RESPONSE	M1	2	14	D4	press
405.671	n/a	RESPONSE	M1	2	14	D4	release
405.875	n/a	RESPONSE	M1	2	12	C4	press
406.202	n/a	RESPONSE	M1	2	16	E4	press
406.222	n/a	RESPONSE	M1	2	12	C4	release
406.455	n/a	RESPONSE	M1	2	16	E4	release
406.536	n/a	RESPONSE	M1	2	12	C4	press
407.278	n/a	RESPONSE	M1	2	12	C4	release
408.265	7.758	FIXCROSS	n/a	n/a	n/a	n/a	n/a
416.023	6.325	CUE_LISTEN	M1	1	n/a	n/a	n/a
422.348	7.759	FIXCROSS	n/a	n/a	n/a	n/a	n/a
430.107	6.317	CUE_PLAYBACK_BOTH_HANDS	M1	1	n/a	n/a	n/a
430.579	n/a	RESPONSE	M1	1	19	G4	press
430.589	n/a	RESPONSE	M1	1	07	G3	press
431.16	n/a	RESPONSE	M1	1	07	G3	release
431.164	n/a	RESPONSE	M1	1	19	G4	release
431.202	n/a	RESPONSE	M1	1	04	E3	press
431.214	n/a	RESPONSE	M1	1	16	E4	press
431.629	n/a	RESPONSE	M1	1	16	E4	release
431.668	n/a	RESPONSE	M1	1	04	E3	release
431.809	n/a	RESPONSE	M1	1	04	E3	press
431.83	n/a	RESPONSE	M1	1	16	E4	press
432.371	n/a	RESPONSE	M1	1	16	E4	release
432.424	n/a	RESPONSE	M1	1	05	F3	press
432.444	n/a	RESPONSE	M1	1	04	E3	release
432.446	n/a	RESPONSE	M1	1	17	F4	press
433.026	n/a	RESPONSE	M1	1	17	F4	release
433.058	n/a	RESPONSE	M1	1	14	D4	press
433.069	n/a	RESPONSE	M1	1	02	D3	press
433.08	n/a	RESPONSE	M1	1	05	F3	release
433.452	n/a	RESPONSE	M1	1	02	D3	release
433.502	n/a	RESPONSE	M1	1	14	D4	release
433.636	n/a	RESPONSE	M1	1	14	D4	press
433.656	n/a	RESPONSE	M1	1	02	D3	press
433.998	n/a	RESPONSE	M1	1	14	D4	release
434.008	n/a	RESPONSE	M1	1	02	D3	release
434.181	n/a	RESPONSE	M1	1	00	C3	press
434.191	n/a	RESPONSE	M1	1	12	C4	press
434.472	n/a	RESPONSE	M1	1	12	C4	release
434.512	n/a	RESPONSE	M1	1	00	C3	release
434.536	n/a	RESPONSE	M1	1	04	E3	press
434.595	n/a	RESPONSE	M1	1	16	E4	press
434.76	n/a	RESPONSE	M1	1	16	E4	release
434.774	n/a	RESPONSE	M1	1	04	E3	release
434.954	n/a	RESPONSE	M1	1	07	G3	press
435.004	n/a	RESPONSE	M1	1	19	G4	press
435.859	n/a	RESPONSE	M1	1	19	G4	release
435.952	n/a	RESPONSE	M1	1	07	G3	release
436.423	7.758	FIXCROSS	n/a	n/a	n/a	n/a	n/a
444.182	6.325	CUE_LISTEN	M1	2	n/a	n/a	n/a
450.507	7.758	FIXCROSS	n/a	n/a	n/a	n/a	n/a
458.265	6.317	CUE_PLAYBACK_BOTH_HANDS	M1	2	n/a	n/a	n/a
458.721	n/a	RESPONSE	M1	2	07	G3	press
458.76	n/a	RESPONSE	M1	2	19	G4	press
459.364	n/a	RESPONSE	M1	2	07	G3	release
459.372	n/a	RESPONSE	M1	2	04	E3	press
459.384	n/a	RESPONSE	M1	2	19	G4	release
459.388	n/a	RESPONSE	M1	2	16	E4	press
459.776	n/a	RESPONSE	M1	2	04	E3	release
459.798	n/a	RESPONSE	M1	2	16	E4	release
459.969	n/a	RESPONSE	M1	2	04	E3	press
459.971	n/a	RESPONSE	M1	2	16	E4	press
460.563	n/a	RESPONSE	M1	2	16	E4	release
460.593	n/a	RESPONSE	M1	2	17	F4	press
460.604	n/a	RESPONSE	M1	2	05	F3	press
460.645	n/a	RESPONSE	M1	2	04	E3	release
461.206	n/a	RESPONSE	M1	2	17	F4	release
461.209	n/a	RESPONSE	M1	2	14	D4	press
461.23	n/a	RESPONSE	M1	2	02	D3	press
461.242	n/a	RESPONSE	M1	2	05	F3	release
461.643	n/a	RESPONSE	M1	2	14	D4	release
461.684	n/a	RESPONSE	M1	2	02	D3	release
461.835	n/a	RESPONSE	M1	2	14	D4	press
461.846	n/a	RESPONSE	M1	2	02	D3	press
462.208	n/a	RESPONSE	M1	2	14	D4	release
462.239	n/a	RESPONSE	M1	2	02	D3	release
462.42	n/a	RESPONSE	M1	2	00	C3	press
462.434	n/a	RESPONSE	M1	2	12	C4	press
462.693	n/a	RESPONSE	M1	2	12	C4	release
462.714	n/a	RESPONSE	M1	2	00	C3	release
462.805	n/a	RESPONSE	M1	2	04	E3	press
462.808	n/a	RESPONSE	M1	2	05	F3	press
462.818	n/a	RESPONSE	M1	2	16	E4	press
462.99	n/a	RESPONSE	M1	2	05	F3	release
463.1	n/a	RESPONSE	M1	2	16	E4	release
463.143	n/a	RESPONSE	M1	2	04	E3	release
463.313	n/a	RESPONSE	M1	2	00	C3	press
463.334	n/a	RESPONSE	M1	2	12	C4	press
464.285	n/a	RESPONSE	M1	2	12	C4	release
464.289	n/a	RESPONSE	M1	2	00	C3	release
464.582	7.759	FIXCROSS	n/a	n/a	n/a	n/a	n/a
472.34	6.317	CUE_LISTEN	M1	1	n/a	n/a	n/a
478.657	7.758	FIXCROSS	n/a	n/a	n/a	n/a	n/a
486.415	6.325	CUE_PLAYBACK_RIGHT_HAND	M1	1	n/a	n/a	n/a
486.855	n/a	RESPONSE	M1	1	19	G4	press
487.375	n/a	RESPONSE	M1	1	19	G4	release
487.45	n/a	RESPONSE	M1	1	16	E4	press
487.838	n/a	RESPONSE	M1	1	16	E4	release
487.976	n/a	RESPONSE	M1	1	16	E4	press
488.545	n/a	RESPONSE	M1	1	17	F4	press
488.548	n/a	RESPONSE	M1	1	16	E4	release
489.066	n/a	RESPONSE	M1	1	14	D4	press
489.078	n/a	RESPONSE	M1	1	17	F4	release
489.481	n/a	RESPONSE	M1	1	14	D4	release
489.63	n/a	RESPONSE	M1	1	14	D4	press
490.033	n/a	RESPONSE	M1	1	14	D4	release
490.173	n/a	RESPONSE	M1	1	12	C4	press
490.464	n/a	RESPONSE	M1	1	12	C4	release
490.515	n/a	RESPONSE	M1	1	16	E4	press
490.726	n/a	RESPONSE	M1	1	16	E4	release
490.828	n/a	RESPONSE	M1	1	19	G4	press
491.76	n/a	RESPONSE	M1	1	19	G4	release
492.74	7.758	FIXCROSS	n/a	n/a	n/a	n/a	n/a
500.498	6.317	CUE_LISTEN	M1	2	n/a	n/a	n/a
506.815	7.758	FIXCROSS	n/a	n/a	n/a	n/a	n/a
514.573	6.325	CUE_PLAYBACK_RIGHT_HAND	M1	2	n/a	n/a	n/a
515.081	n/a	RESPONSE	M1	2	19	G4	press
515.643	n/a	RESPONSE	M1	2	19	G4	release
515.663	n/a	RESPONSE	M1	2	16	E4	press
516.101	n/a	RESPONSE	M1	2	16	E4	release
516.223	n/a	RESPONSE	M1	2	16	E4	press
516.796	n/a	RESPONSE	M1	2	17	F4	press
516.818	n/a	RESPONSE	M1	2	16	E4	release
517.371	n/a	RESPONSE	M1	2	17	F4	release
517.374	n/a	RESPONSE	M1	2	14	D4	press
517.896	n/a	RESPONSE	M1	2	14	D4	release
517.95	n/a	RESPONSE	M1	2	14	D4	press
518.338	n/a	RESPONSE	M1	2	14	D4	release
518.529	n/a	RESPONSE	M1	2	12	C4	press
518.83	n/a	RESPONSE	M1	2	16	E4	press
518.881	n/a	RESPONSE	M1	2	12	C4	release
519.094	n/a	RESPONSE	M1	2	16	E4	release
519.165	n/a	RESPONSE	M1	2	12	C4	press
520.225	n/a	RESPONSE	M1	2	12	C4	release
520.898	7.759	FIXCROSS	n/a	n/a	n/a	n/a	n/a
528.657	6.317	CUE_LISTEN	M1	1	n/a	n/a	n/a
534.974	7.758	FIXCROSS	n/a	n/a	n/a	n/a	n/a
542.732	6.317	CUE_PLAYBACK_BOTH_HANDS	M1	1	n/a	n/a	n/a
543.355	n/a	RESPONSE	M1	1	19	G4	press
543.375	n/a	RESPONSE	M1	1	07	G3	press
543.938	n/a	RESPONSE	M1	1	19	G4	release
543.948	n/a	RESPONSE	M1	1	04	E3	press
543.959	n/a	RESPONSE	M1	1	16	E4	press
544.03	n/a	RESPONSE	M1	1	07	G3	release
544.411	n/a	RESPONSE	M1	1	16	E4	release
544.433	n/a	RESPONSE	M1	1	04	E3	release
544.584	n/a	RESPONSE	M1	1	04	E3	press
544.588	n/a	RESPONSE	M1	1	16	E4	press
545.149	n/a	RESPONSE	M1	1	17	F4	press
545.153	n/a	RESPONSE	M1	1	05	F3	press
545.194	n/a	RESPONSE	M1	1	16	E4	release
545.226	n/a	RESPONSE	M1	1	04	E3	release
545.768	n/a	RESPONSE	M1	1	14	D4	press
545.771	n/a	RESPONSE	M1	1	02	D3	press
545.776	n/a	RESPONSE	M1	1	17	F4	release
545.845	n/a	RESPONSE	M1	1	05	F3	release
546.721	n/a	RESPONSE	M1	1	14	D4	release
546.735	n/a	RESPONSE	M1	1	02	D3	release
546.803	n/a	RESPONSE	M1	1	02	D3	press
546.813	n/a	RESPONSE	M1	1	14	D4	press
547.17	n/a	RESPONSE	M1	1	14	D4	release
547.184	n/a	RESPONSE	M1	1	02	D3	release
547.374	n/a	RESPONSE	M1	1	00	C3	press
547.408	n/a	RESPONSE	M1	1	12	C4	press
547.69	n/a	RESPONSE	M1	1	12	C4	release
547.708	n/a	RESPONSE	M1	1	00	C3	release
547.723	n/a	RESPONSE	M1	1	04	E3	press
547.746	n/a	RESPONSE	M1	1	16	E4	press
547.981	n/a	RESPONSE	M1	1	16	E4	release
548.0	n/a	RESPONSE	M1	1	04	E3	release
548.096	n/a	RESPONSE	M1	1	00	C3	press
548.106	n/a	RESPONSE	M1	1	12	C4	press
548.281	n/a	RESPONSE	M1	1	12	C4	release
548.403	n/a	RESPONSE	M1	1	00	C3	release
549.049	7.759	FIXCROSS	n/a	n/a	n/a	n/a	n/a
556.807	6.317	CUE_LISTEN	M1	2	n/a	n/a	n/a
563.124	7.758	FIXCROSS	n/a	n/a	n/a	n/a	n/a
570.882	6.325	CUE_PLAYBACK_BOTH_HANDS	M1	2	n/a	n/a	n/a
571.439	n/a	RESPONSE	M1	2	19	G4	press
571.45	n/a	RESPONSE	M1	2	07	G3	press
572.023	n/a	RESPONSE	M1	2	04	E3	press
572.025	n/a	RESPONSE	M1	2	19	G4	release
572.038	n/a	RESPONSE	M1	2	16	E4	press
572.046	n/a	RESPONSE	M1	2	07	G3	release
572.429	n/a	RESPONSE	M1	2	04	E3	release
572.469	n/a	RESPONSE	M1	2	16	E4	release
572.59	n/a	RESPONSE	M1	2	04	E3	press
572.612	n/a	RESPONSE	M1	2	16	E4	press
573.173	n/a	RESPONSE	M1	2	17	F4	press
573.186	n/a	RESPONSE	M1	2	05	F3	press
573.255	n/a	RESPONSE	M1	2	16	E4	release
573.276	n/a	RESPONSE	M1	2	04	E3	release
573.758	n/a	RESPONSE	M1	2	17	F4	release
573.779	n/a	RESPONSE	M1	2	14	D4	press
573.8	n/a	RESPONSE	M1	2	02	D3	press
573.872	n/a	RESPONSE	M1	2	05	F3	release
574.223	n/a	RESPONSE	M1	2	02	D3	release
574.394	n/a	RESPONSE	M1	2	02	D3	press
574.763	n/a	RESPONSE	M1	2	14	D4	release
574.8	n/a	RESPONSE	M1	2	02	D3	release
574.962	n/a	RESPONSE	M1	2	00	C3	press
575.003	n/a	RESPONSE	M1	2	12	C4	press
575.242	n/a	RESPONSE	M1	2	12	C4	release
575.283	n/a	RESPONSE	M1	2	00	C3	release
575.294	n/a	RESPONSE	M1	2	04	E3	press
575.319	n/a	RESPONSE	M1	2	16	E4	press
575.525	n/a	RESPONSE	M1	2	16	E4	release
575.558	n/a	RESPONSE	M1	2	04	E3	release
575.628	n/a	RESPONSE	M1	2	00	C3	press
575.646	n/a	RESPONSE	M1	2	12	C4	press
576.56	n/a	RESPONSE	M1	2	12	C4	release
576.63	n/a	RESPONSE	M1	2	00	C3	release
577.207	7.758	FIXCROSS	n/a	n/a	n/a	n/a	n/a
584.966	6.317	CUE_LISTEN	M1	1	n/a	n/a	n/a
591.282	7.758	FIXCROSS	n/a	n/a	n/a	n/a	n/a
599.04	6.325	CUE_PLAYBACK_RIGHT_HAND	M1	1	n/a	n/a	n/a
599.569	n/a	RESPONSE	M1	1	19	G4	press
600.14	n/a	RESPONSE	M1	1	19	G4	release
600.16	n/a	RESPONSE	M1	1	16	E4	press
600.534	n/a	RESPONSE	M1	1	16	E4	release
600.703	n/a	RESPONSE	M1	1	16	E4	press
601.184	n/a	RESPONSE	M1	1	17	F4	press
601.206	n/a	RESPONSE	M1	1	16	E4	release
601.738	n/a	RESPONSE	M1	1	17	F4	release
601.749	n/a	RESPONSE	M1	1	14	D4	press
602.162	n/a	RESPONSE	M1	1	14	D4	release
602.322	n/a	RESPONSE	M1	1	14	D4	press
602.723	n/a	RESPONSE	M1	1	14	D4	release
602.864	n/a	RESPONSE	M1	1	12	C4	press
603.165	n/a	RESPONSE	M1	1	16	E4	press
603.246	n/a	RESPONSE	M1	1	12	C4	release
603.358	n/a	RESPONSE	M1	1	16	E4	release
603.479	n/a	RESPONSE	M1	1	19	G4	press
604.33	n/a	RESPONSE	M1	1	19	G4	release
605.366	7.758	FIXCROSS	n/a	n/a	n/a	n/a	n/a
613.124	6.317	CUE_LISTEN	M1	2	n/a	n/a	n/a
619.441	7.758	FIXCROSS	n/a	n/a	n/a	n/a	n/a
627.199	6.317	CUE_PLAYBACK_RIGHT_HAND	M1	2	n/a	n/a	n/a
627.639	n/a	RESPONSE	M1	2	19	G4	press
628.193	n/a	RESPONSE	M1	2	19	G4	release
628.217	n/a	RESPONSE	M1	2	16	E4	press
628.654	n/a	RESPONSE	M1	2	16	E4	release
628.805	n/a	RESPONSE	M1	2	16	E4	press
629.357	n/a	RESPONSE	M1	2	17	F4	press
629.395	n/a	RESPONSE	M1	2	16	E4	release
629.948	n/a	RESPONSE	M1	2	14	D4	press
629.968	n/a	RESPONSE	M1	2	17	F4	release
630.442	n/a	RESPONSE	M1	2	14	D4	release
630.55	n/a	RESPONSE	M1	2	14	D4	press
631.072	n/a	RESPONSE	M1	2	14	D4	release
631.183	n/a	RESPONSE	M1	2	12	C4	press
631.505	n/a	RESPONSE	M1	2	16	E4	press
631.577	n/a	RESPONSE	M1	2	12	C4	release
631.808	n/a	RESPONSE	M1	2	16	E4	release
631.82	n/a	RESPONSE	M1	2	12	C4	press
632.782	n/a	RESPONSE	M1	2	12	C4	release
633.516	7.758	FIXCROSS	n/a	n/a	n/a	n/a	n/a
641.274	6.317	CUE_LISTEN	M1	1	n/a	n/a	n/a
647.591	7.758	FIXCROSS	n/a	n/a	n/a	n/a	n/a
655.349	6.325	CUE_PLAYBACK_BOTH_HANDS	M1	1	n/a	n/a	n/a
655.972	n/a	RESPONSE	M1	1	19	G4	press
655.975	n/a	RESPONSE	M1	1	07	G3	press
656.598	n/a	RESPONSE	M1	1	04	E3	press
656.61	n/a	RESPONSE	M1	1	16	E4	press
656.613	n/a	RESPONSE	M1	1	19	G4	release
656.663	n/a	RESPONSE	M1	1	07	G3	release
657.043	n/a	RESPONSE	M1	1	04	E3	release
657.067	n/a	RESPONSE	M1	1	16	E4	release
657.215	n/a	RESPONSE	M1	1	04	E3	press
657.232	n/a	RESPONSE	M1	1	16	E4	press
657.825	n/a	RESPONSE	M1	1	17	F4	press
657.828	n/a	RESPONSE	M1	1	05	F3	press
657.859	n/a	RESPONSE	M1	1	16	E4	release
657.923	n/a	RESPONSE	M1	1	04	E3	release
658.467	n/a	RESPONSE	M1	1	14	D4	press
658.469	n/a	RESPONSE	M1	1	17	F4	release
658.479	n/a	RESPONSE	M1	1	02	D3	press
658.513	n/a	RESPONSE	M1	1	05	F3	release
658.952	n/a	RESPONSE	M1	1	02	D3	release
658.973	n/a	RESPONSE	M1	1	14	D4	release
659.115	n/a	RESPONSE	M1	1	14	D4	press
659.135	n/a	RESPONSE	M1	1	02	D3	press
659.487	n/a	RESPONSE	M1	1	14	D4	release
659.508	n/a	RESPONSE	M1	1	02	D3	release
659.679	n/a	RESPONSE	M1	1	00	C3	press
659.7	n/a	RESPONSE	M1	1	12	C4	press
659.953	n/a	RESPONSE	M1	1	12	C4	release
660.003	n/a	RESPONSE	M1	1	04	E3	press
660.036	n/a	RESPONSE	M1	1	00	C3	release
660.055	n/a	RESPONSE	M1	1	16	E4	press
660.229	n/a	RESPONSE	M1	1	16	E4	release
660.268	n/a	RESPONSE	M1	1	04	E3	release
660.349	n/a	RESPONSE	M1	1	07	G3	press
660.39	n/a	RESPONSE	M1	1	19	G4	press
661.481	n/a	RESPONSE	M1	1	19	G4	release
661.594	n/a	RESPONSE	M1	1	07	G3	release
661.674	7.758	FIXCROSS	n/a	n/a	n/a	n/a	n/a
669.432	6.317	CUE_LISTEN	M1	2	n/a	n/a	n/a
675.749	7.759	FIXCROSS	n/a	n/a	n/a	n/a	n/a
683.508	6.317	CUE_PLAYBACK_BOTH_HANDS	M1	2	n/a	n/a	n/a
683.943	n/a	RESPONSE	M1	2	19	G4	press
683.947	n/a	RESPONSE	M1	2	07	G3	press
684.528	n/a	RESPONSE	M1	2	19	G4	release
684.547	n/a	RESPONSE	M1	2	07	G3	release
684.549	n/a	RESPONSE	M1	2	04	E3	press
684.569	n/a	RESPONSE	M1	2	16	E4	press
685.015	n/a	RESPONSE	M1	2	16	E4	release
685.027	n/a	RESPONSE	M1	2	04	E3	release
685.165	n/a	RESPONSE	M1	2	04	E3	press
685.175	n/a	RESPONSE	M1	2	16	E4	press
685.753	n/a	RESPONSE	M1	2	05	F3	press
685.762	n/a	RESPONSE	M1	2	17	F4	press
685.809	n/a	RESPONSE	M1	2	16	E4	release
685.839	n/a	RESPONSE	M1	2	04	E3	release
686.348	n/a	RESPONSE	M1	2	14	D4	press
686.35	n/a	RESPONSE	M1	2	17	F4	release
686.359	n/a	RESPONSE	M1	2	02	D3	press
686.407	n/a	RESPONSE	M1	2	05	F3	release
686.823	n/a	RESPONSE	M1	2	02	D3	release
686.865	n/a	RESPONSE	M1	2	14	D4	release
686.967	n/a	RESPONSE	M1	2	14	D4	press
686.989	n/a	RESPONSE	M1	2	02	D3	press
687.379	n/a	RESPONSE	M1	2	02	D3	release
687.428	n/a	RESPONSE	M1	2	14	D4	release
687.524	n/a	RESPONSE	M1	2	00	C3	press
687.555	n/a	RESPONSE	M1	2	12	C4	press
687.784	n/a	RESPONSE	M1	2	12	C4	release
687.852	n/a	RESPONSE	M1	2	00	C3	release
687.892	n/a	RESPONSE	M1	2	04	E3	press
687.903	n/a	RESPONSE	M1	2	16	E4	press
688.182	n/a	RESPONSE	M1	2	04	E3	release
688.207	n/a	RESPONSE	M1	2	16	E4	release
688.268	n/a	RESPONSE	M1	2	00	C3	press
688.292	n/a	RESPONSE	M1	2	12	C4	press
689.172	n/a	RESPONSE	M1	2	12	C4	release
689.244	n/a	RESPONSE	M1	2	00	C3	release
689.824	7.758	FIXCROSS	n/a	n/a	n/a	n/a	n/a
697.583	6.333	CUE_LISTEN	M1	1	n/a	n/a	n/a
703.916	7.758	FIXCROSS	n/a	n/a	n/a	n/a	n/a
711.674	6.308	CUE_PLAYBACK_RIGHT_HAND	M1	1	n/a	n/a	n/a
712.246	n/a	RESPONSE	M1	1	19	G4	press
712.787	n/a	RESPONSE	M1	1	19	G4	release
712.818	n/a	RESPONSE	M1	1	16	E4	press
713.219	n/a	RESPONSE	M1	1	16	E4	release
713.39	n/a	RESPONSE	M1	1	16	E4	press
713.922	n/a	RESPONSE	M1	1	17	F4	press
713.963	n/a	RESPONSE	M1	1	16	E4	release
714.487	n/a	RESPONSE	M1	1	14	D4	press
714.515	n/a	RESPONSE	M1	1	17	F4	release
714.964	n/a	RESPONSE	M1	1	14	D4	release
715.075	n/a	RESPONSE	M1	1	14	D4	press
715.538	n/a	RESPONSE	M1	1	14	D4	release
715.65	n/a	RESPONSE	M1	1	12	C4	press
715.953	n/a	RESPONSE	M1	1	16	E4	press
716.153	n/a	RESPONSE	M1	1	12	C4	release
716.174	n/a	RESPONSE	M1	1	16	E4	release
716.249	n/a	RESPONSE	M1	1	19	G4	press
717.26	n/a	RESPONSE	M1	1	19	G4	release
717.983	7.758	FIXCROSS	n/a	n/a	n/a	n/a	n/a
725.741	6.325	CUE_LISTEN	M1	2	n/a	n/a	n/a
732.066	7.758	FIXCROSS	n/a	n/a	n/a	n/a	n/a
739.824	6.317	CUE_PLAYBACK_RIGHT_HAND	M1	2	n/a	n/a	n/a
740.289	n/a	RESPONSE	M1	2	19	G4	press
740.872	n/a	RESPONSE	M1	2	19	G4	release
740.902	n/a	RESPONSE	M1	2	16	E4	press
741.333	n/a	RESPONSE	M1	2	16	E4	release
741.474	n/a	RESPONSE	M1	2	16	E4	press
742.018	n/a	RESPONSE	M1	2	17	F4	press
742.078	n/a	RESPONSE	M1	2	16	E4	release
742.579	n/a	RESPONSE	M1	2	14	D4	press
742.62	n/a	RESPONSE	M1	2	17	F4	release
743.433	n/a	RESPONSE	M1	2	14	D4	release
743.606	n/a	RESPONSE	M1	2	14	D4	press
744.167	n/a	RESPONSE	M1	2	14	D4	release
744.266	n/a	RESPONSE	M1	2	12	C4	press
744.577	n/a	RESPONSE	M1	2	16	E4	press
744.639	n/a	RESPONSE	M1	2	12	C4	release
744.894	n/a	RESPONSE	M1	2	12	C4	press
744.897	n/a	RESPONSE	M1	2	16	E4	release
746.0	n/a	RESPONSE	M1	2	12	C4	release
746.141	7.759	FIXCROSS	n/a	n/a	n/a	n/a	n/a
753.9	6.317	CUE_LISTEN	M1	1	n/a	n/a	n/a
760.216	7.767	FIXCROSS	n/a	n/a	n/a	n/a	n/a
767.983	6.317	CUE_PLAYBACK_BOTH_HANDS	M1	1	n/a	n/a	n/a
768.542	n/a	RESPONSE	M1	1	07	G3	press
768.544	n/a	RESPONSE	M1	1	19	G4	press
769.107	n/a	RESPONSE	M1	1	07	G3	release
769.116	n/a	RESPONSE	M1	1	19	G4	release
769.167	n/a	RESPONSE	M1	1	04	E3	press
769.169	n/a	RESPONSE	M1	1	16	E4	press
769.552	n/a	RESPONSE	M1	1	04	E3	release
769.583	n/a	RESPONSE	M1	1	16	E4	release
769.742	n/a	RESPONSE	M1	1	04	E3	press
769.783	n/a	RESPONSE	M1	1	16	E4	press
770.354	n/a	RESPONSE	M1	1	05	F3	press
770.357	n/a	RESPONSE	M1	1	17	F4	press
770.377	n/a	RESPONSE	M1	1	16	E4	release
770.421	n/a	RESPONSE	M1	1	04	E3	release
770.909	n/a	RESPONSE	M1	1	14	D4	press
770.921	n/a	RESPONSE	M1	1	17	F4	release
770.932	n/a	RESPONSE	M1	1	02	D3	press
770.983	n/a	RESPONSE	M1	1	05	F3	release
771.344	n/a	RESPONSE	M1	1	02	D3	release
771.376	n/a	RESPONSE	M1	1	14	D4	release
771.518	n/a	RESPONSE	M1	1	02	D3	press
771.521	n/a	RESPONSE	M1	1	14	D4	press
771.89	n/a	RESPONSE	M1	1	02	D3	release
771.913	n/a	RESPONSE	M1	1	14	D4	release
772.023	n/a	RESPONSE	M1	1	00	C3	press
772.064	n/a	RESPONSE	M1	1	12	C4	press
772.318	n/a	RESPONSE	M1	1	12	C4	release
772.367	n/a	RESPONSE	M1	1	00	C3	release
772.378	n/a	RESPONSE	M1	1	04	E3	press
772.409	n/a	RESPONSE	M1	1	16	E4	press
772.6	n/a	RESPONSE	M1	1	16	E4	release
772.622	n/a	RESPONSE	M1	1	04	E3	release
772.743	n/a	RESPONSE	M1	1	07	G3	press
772.754	n/a	RESPONSE	M1	1	19	G4	press
773.836	n/a	RESPONSE	M1	1	19	G4	release
773.887	n/a	RESPONSE	M1	1	07	G3	release
774.3	7.758	FIXCROSS	n/a	n/a	n/a	n/a	n/a
782.058	6.317	CUE_LISTEN	M1	2	n/a	n/a	n/a
788.374	7.759	FIXCROSS	n/a	n/a	n/a	n/a	n/a
796.133	6.317	CUE_PLAYBACK_BOTH_HANDS	M1	2	n/a	n/a	n/a
796.633	n/a	RESPONSE	M1	2	19	G4	press
796.648	n/a	RESPONSE	M1	2	07	G3	press
797.196	n/a	RESPONSE	M1	2	19	G4	release
797.214	n/a	RESPONSE	M1	2	04	E3	press
797.227	n/a	RESPONSE	M1	2	16	E4	press
797.241	n/a	RESPONSE	M1	2	07	G3	release
797.671	n/a	RESPONSE	M1	2	04	E3	release
797.674	n/a	RESPONSE	M1	2	16	E4	release
797.801	n/a	RESPONSE	M1	2	04	E3	press
797.821	n/a	RESPONSE	M1	2	16	E4	press
798.396	n/a	RESPONSE	M1	2	05	F3	press
798.398	n/a	RESPONSE	M1	2	17	F4	press
798.408	n/a	RESPONSE	M1	2	16	E4	release
798.462	n/a	RESPONSE	M1	2	04	E3	release
798.961	n/a	RESPONSE	M1	2	17	F4	release
798.964	n/a	RESPONSE	M1	2	14	D4	press
798.983	n/a	RESPONSE	M1	2	02	D3	press
799.047	n/a	RESPONSE	M1	2	05	F3	release
799.408	n/a	RESPONSE	M1	2	02	D3	release
799.547	n/a	RESPONSE	M1	2	02	D3	press
799.878	n/a	RESPONSE	M1	2	14	D4	release
799.889	n/a	RESPONSE	M1	2	02	D3	release
800.081	n/a	RESPONSE	M1	2	00	C3	press
800.132	n/a	RESPONSE	M1	2	12	C4	press
800.403	n/a	RESPONSE	M1	2	12	C4	release
800.414	n/a	RESPONSE	M1	2	00	C3	release
800.446	n/a	RESPONSE	M1	2	04	E3	press
800.448	n/a	RESPONSE	M1	2	16	E4	press
800.698	n/a	RESPONSE	M1	2	16	E4	release
800.701	n/a	RESPONSE	M1	2	04	E3	release
800.771	n/a	RESPONSE	M1	2	00	C3	press
800.792	n/a	RESPONSE	M1	2	12	C4	press
801.854	n/a	RESPONSE	M1	2	00	C3	release
801.866	n/a	RESPONSE	M1	2	12	C4	release
802.45	7.758	FIXCROSS	n/a	n/a	n/a	n/a	n/a
810.208	6.325	CUE_LISTEN	M1	1	n/a	n/a	n/a
816.533	7.758	FIXCROSS	n/a	n/a	n/a	n/a	n/a
824.291	6.317	CUE_PLAYBACK_RIGHT_HAND	M1	1	n/a	n/a	n/a
824.826	n/a	RESPONSE	M1	1	19	G4	press
825.311	n/a	RESPONSE	M1	1	19	G4	release
825.368	n/a	RESPONSE	M1	1	16	E4	press
825.766	n/a	RESPONSE	M1	1	16	E4	release
825.929	n/a	RESPONSE	M1	1	16	E4	press
826.514	n/a	RESPONSE	M1	1	17	F4	press
826.554	n/a	RESPONSE	M1	1	16	E4	release
827.061	n/a	RESPONSE	M1	1	14	D4	press
827.071	n/a	RESPONSE	M1	1	17	F4	release
827.511	n/a	RESPONSE	M1	1	14	D4	release
827.646	n/a	RESPONSE	M1	1	14	D4	press
828.237	n/a	RESPONSE	M1	1	12	C4	press
828.289	n/a	RESPONSE	M1	1	14	D4	release
828.592	n/a	RESPONSE	M1	1	16	E4	press
828.774	n/a	RESPONSE	M1	1	16	E4	release
828.847	n/a	RESPONSE	M1	1	12	C4	release
828.878	n/a	RESPONSE	M1	1	19	G4	press
830.139	n/a	RESPONSE	M1	1	19	G4	release
830.608	7.759	FIXCROSS	n/a	n/a	n/a	n/a	n/a
838.366	6.317	CUE_LISTEN	M1	2	n/a	n/a	n/a
844.683	7.758	FIXCROSS	n/a	n/a	n/a	n/a	n/a
852.442	6.325	CUE_PLAYBACK_RIGHT_HAND	M1	2	n/a	n/a	n/a
852.978	n/a	RESPONSE	M1	2	19	G4	press
853.497	n/a	RESPONSE	M1	2	19	G4	release
853.518	n/a	RESPONSE	M1	2	16	E4	press
853.93	n/a	RESPONSE	M1	2	16	E4	release
854.082	n/a	RESPONSE	M1	2	16	E4	press
854.652	n/a	RESPONSE	M1	2	17	F4	press
854.654	n/a	RESPONSE	M1	2	16	E4	release
855.212	n/a	RESPONSE	M1	2	14	D4	press
855.243	n/a	RESPONSE	M1	2	17	F4	release
855.65	n/a	RESPONSE	M1	2	14	D4	release
855.801	n/a	RESPONSE	M1	2	14	D4	press
856.396	n/a	RESPONSE	M1	2	12	C4	press
856.541	n/a	RESPONSE	M1	2	14	D4	release
856.712	n/a	RESPONSE	M1	2	16	E4	press
856.793	n/a	RESPONSE	M1	2	12	C4	release
857.014	n/a	RESPONSE	M1	2	12	C4	press
857.034	n/a	RESPONSE	M1	2	16	E4	release
858.153	n/a	RESPONSE	M1	2	12	C4	release
858.766	7.758	FIXCROSS	n/a	n/a	n/a	n/a	n/a
866.525	6.317	CUE_LISTEN	M1	1	n/a	n/a	n/a
872.842	7.759	FIXCROSS	n/a	n/a	n/a	n/a	n/a
880.6	6.325	CUE_PLAYBACK_BOTH_HANDS	M1	1	n/a	n/a	n/a
881.048	n/a	RESPONSE	M1	1	19	G4	press
881.052	n/a	RESPONSE	M1	1	07	G3	press
881.612	n/a	RESPONSE	M1	1	19	G4	release
881.653	n/a	RESPONSE	M1	1	07	G3	release
881.656	n/a	RESPONSE	M1	1	16	E4	press
881.658	n/a	RESPONSE	M1	1	04	E3	press
882.058	n/a	RESPONSE	M1	1	04	E3	release
882.061	n/a	RESPONSE	M1	1	16	E4	release
882.21	n/a	RESPONSE	M1	1	04	E3	press
882.223	n/a	RESPONSE	M1	1	16	E4	press
882.772	n/a	RESPONSE	M1	1	17	F4	press
882.774	n/a	RESPONSE	M1	1	16	E4	release
882.814	n/a	RESPONSE	M1	1	05	F3	press
882.887	n/a	RESPONSE	M1	1	04	E3	release
883.347	n/a	RESPONSE	M1	1	02	D3	press
883.35	n/a	RESPONSE	M1	1	14	D4	press
883.352	n/a	RESPONSE	M1	1	17	F4	release
883.401	n/a	RESPONSE	M1	1	05	F3	release
883.742	n/a	RESPONSE	M1	1	02	D3	release
883.753	n/a	RESPONSE	M1	1	14	D4	release
883.914	n/a	RESPONSE	M1	1	14	D4	press
883.917	n/a	RESPONSE	M1	1	02	D3	press
884.287	n/a	RESPONSE	M1	1	14	D4	release
884.308	n/a	RESPONSE	M1	1	02	D3	release
884.42	n/a	RESPONSE	M1	1	00	C3	press
884.431	n/a	RESPONSE	M1	1	12	C4	press
884.702	n/a	RESPONSE	M1	1	04	E3	press
884.738	n/a	RESPONSE	M1	1	16	E4	press
884.753	n/a	RESPONSE	M1	1	12	C4	release
884.838	n/a	RESPONSE	M1	1	00	C3	release
884.906	n/a	RESPONSE	M1	1	16	E4	release
884.94	n/a	RESPONSE	M1	1	04	E3	release
885.036	n/a	RESPONSE	M1	1	19	G4	press
885.04	n/a	RESPONSE	M1	1	07	G3	press
886.113	n/a	RESPONSE	M1	1	19	G4	release
886.228	n/a	RESPONSE	M1	1	07	G3	release
886.925	7.758	FIXCROSS	n/a	n/a	n/a	n/a	n/a
894.683	6.317	CUE_LISTEN	M1	2	n/a	n/a	n/a
901.0	7.758	FIXCROSS	n/a	n/a	n/a	n/a	n/a
908.758	40.768	CUE_PLAYBACK_BOTH_HANDS	M1	2	n/a	n/a	n/a
909.261	n/a	RESPONSE	M1	2	07	G3	press
909.263	n/a	RESPONSE	M1	2	19	G4	press
909.853	n/a	RESPONSE	M1	2	19	G4	release
909.894	n/a	RESPONSE	M1	2	16	E4	press
909.906	n/a	RESPONSE	M1	2	04	E3	press
909.917	n/a	RESPONSE	M1	2	07	G3	release
910.328	n/a	RESPONSE	M1	2	16	E4	release
910.53	n/a	RESPONSE	M1	2	16	E4	press
910.991	n/a	RESPONSE	M1	2	16	E4	release
911.032	n/a	RESPONSE	M1	2	04	E3	release
911.143	n/a	RESPONSE	M1	2	05	F3	press
911.155	n/a	RESPONSE	M1	2	17	F4	press
911.777	n/a	RESPONSE	M1	2	17	F4	release
911.788	n/a	RESPONSE	M1	2	14	D4	press
911.791	n/a	RESPONSE	M1	2	02	D3	press
911.793	n/a	RESPONSE	M1	2	05	F3	release
912.162	n/a	RESPONSE	M1	2	02	D3	release
912.223	n/a	RESPONSE	M1	2	14	D4	release
912.405	n/a	RESPONSE	M1	2	02	D3	press
912.407	n/a	RESPONSE	M1	2	14	D4	press
912.787	n/a	RESPONSE	M1	2	02	D3	release
912.798	n/a	RESPONSE	M1	2	14	D4	release
912.93	n/a	RESPONSE	M1	2	00	C3	press
912.943	n/a	RESPONSE	M1	2	12	C4	press
913.212	n/a	RESPONSE	M1	2	12	C4	release
913.223	n/a	RESPONSE	M1	2	00	C3	release
913.253	n/a	FIXCROSS	n/a	n/a	n/a	n/a	n/a
913.267	n/a	RESPONSE	M1	2	04	E3	press
913.306	n/a	RESPONSE	M1	2	16	E4	press
913.527	n/a	RESPONSE	M1	2	16	E4	release
913.551	n/a	RESPONSE	M1	2	04	E3	release
913.621	n/a	RESPONSE	M1	2	00	C3	press
913.633	n/a	RESPONSE	M1	2	12	C4	press
914.552	n/a	RESPONSE	M1	2	00	C3	release
914.583	n/a	RESPONSE	M1	2	12	C4	release
