onset	duration	trial_type	trial_number	stroop_condition	stim_text(PL)	stim_text(eng)	stim_color(PL)	stim_color(eng)	response_type	response_color
0.0	n/a	RESPONSE	n/a	n/a	n/a	n/a	n/a	n/a	n/a	n/a
0.0583	1.0334	ITI	n/a	n/a	n/a	n/a	n/a	n/a	n/a	n/a
1.0917	0.5167	FIXCROSS	n/a	n/a	n/a	n/a	n/a	n/a	n/a	n/a
1.6083	1.6833	T_INK	1	Neutral	xxxxxxxx	xxxxxxxx	niebieski	blue	hit	n/a
3.26	n/a	RESPONSE	n/a	n/a	n/a	n/a	n/a	n/a	n/a	blue
3.2917	0.5167	FEEDBACK	n/a	n/a	n/a	n/a	n/a	n/a	n/a	n/a
3.8084	1.0167	ITI	n/a	n/a	n/a	n/a	n/a	n/a	n/a	n/a
4.825	0.5167	FIXCROSS	n/a	n/a	n/a	n/a	n/a	n/a	n/a	n/a
5.3417	1.0667	T_INK	2	Neutral	xxxxxxxxx	xxxxxxxxx	zielony	green	hit	n/a
6.3761	n/a	RESPONSE	n/a	n/a	n/a	n/a	n/a	n/a	n/a	green
6.4084	0.5167	FEEDBACK	n/a	n/a	n/a	n/a	n/a	n/a	n/a	n/a
6.925	1.0167	ITI	n/a	n/a	n/a	n/a	n/a	n/a	n/a	n/a
7.9417	0.5167	FIXCROSS	n/a	n/a	n/a	n/a	n/a	n/a	n/a	n/a
8.4584	0.8833	T_INK	3	Incongruent	niebieski	blue	żółty	yellow	incorrect	n/a
9.3164	n/a	RESPONSE	n/a	n/a	n/a	n/a	n/a	n/a	n/a	blue
9.3417	0.5167	FEEDBACK	n/a	n/a	n/a	n/a	n/a	n/a	n/a	n/a
9.8584	1.0167	ITI	n/a	n/a	n/a	n/a	n/a	n/a	n/a	n/a
10.8751	0.5167	FIXCROSS	n/a	n/a	n/a	n/a	n/a	n/a	n/a	n/a
11.3918	1.0833	T_INK	4	Neutral	xxxxxxxx	xxxxxxxx	żółty	yellow	hit	n/a
12.4485	n/a	RESPONSE	n/a	n/a	n/a	n/a	n/a	n/a	n/a	yellow
12.4751	0.5167	FEEDBACK	n/a	n/a	n/a	n/a	n/a	n/a	n/a	n/a
12.9918	1.0167	ITI	n/a	n/a	n/a	n/a	n/a	n/a	n/a	n/a
14.0084	0.5167	FIXCROSS	n/a	n/a	n/a	n/a	n/a	n/a	n/a	n/a
14.5251	1.1167	T_INK	5	Neutral	xxxxxxxx	xxxxxxxx	zielony	green	hit	n/a
15.6126	n/a	RESPONSE	n/a	n/a	n/a	n/a	n/a	n/a	n/a	green
15.6418	0.5167	FEEDBACK	n/a	n/a	n/a	n/a	n/a	n/a	n/a	n/a
16.1585	1.0167	ITI	n/a	n/a	n/a	n/a	n/a	n/a	n/a	n/a
17.1751	0.5167	FIXCROSS	n/a	n/a	n/a	n/a	n/a	n/a	n/a	n/a
17.6918	0.9667	T_INK	6	Incongruent	żółty	yellow	czerwony	red	hit	n/a
18.6328	n/a	RESPONSE	n/a	n/a	n/a	n/a	n/a	n/a	n/a	red
18.6585	0.5167	FEEDBACK	n/a	n/a	n/a	n/a	n/a	n/a	n/a	n/a
19.1751	1.0167	ITI	n/a	n/a	n/a	n/a	n/a	n/a	n/a	n/a
20.1918	0.5167	FIXCROSS	n/a	n/a	n/a	n/a	n/a	n/a	n/a	n/a
20.7085	1.1	T_INK	7	Incongruent	zielony	green	żółty	yellow	hit	n/a
21.781	n/a	RESPONSE	n/a	n/a	n/a	n/a	n/a	n/a	n/a	yellow
21.8085	0.5167	FEEDBACK	n/a	n/a	n/a	n/a	n/a	n/a	n/a	n/a
22.3252	1.0167	ITI	n/a	n/a	n/a	n/a	n/a	n/a	n/a	n/a
23.3419	0.5167	FIXCROSS	n/a	n/a	n/a	n/a	n/a	n/a	n/a	n/a
23.8585	1.25	T_INK	8	Incongruent	czerwony	red	żółty	yellow	hit	n/a
25.0729	n/a	RESPONSE	n/a	n/a	n/a	n/a	n/a	n/a	n/a	yellow
25.1085	0.5167	FEEDBACK	n/a	n/a	n/a	n/a	n/a	n/a	n/a	n/a
25.6252	1.0167	ITI	n/a	n/a	n/a	n/a	n/a	n/a	n/a	n/a
26.6419	0.5167	FIXCROSS	n/a	n/a	n/a	n/a	n/a	n/a	n/a	n/a
27.1586	0.8667	T_INK	9	Neutral	xxxxx	xxxxx	czerwony	red	hit	n/a
27.9973	n/a	RESPONSE	n/a	n/a	n/a	n/a	n/a	n/a	n/a	red
28.0252	0.5167	FEEDBACK	n/a	n/a	n/a	n/a	n/a	n/a	n/a	n/a
28.5419	1.0167	ITI	n/a	n/a	n/a	n/a	n/a	n/a	n/a	n/a
29.5586	0.5167	FIXCROSS	n/a	n/a	n/a	n/a	n/a	n/a	n/a	n/a
30.0752	0.7167	T_INK	10	Neutral	xxxxxxx	xxxxxxx	niebieski	blue	hit	n/a
30.7618	n/a	RESPONSE	n/a	n/a	n/a	n/a	n/a	n/a	n/a	blue
30.7919	0.5167	FEEDBACK	n/a	n/a	n/a	n/a	n/a	n/a	n/a	n/a
31.3086	1.0167	ITI	n/a	n/a	n/a	n/a	n/a	n/a	n/a	n/a
32.3253	0.5167	FIXCROSS	n/a	n/a	n/a	n/a	n/a	n/a	n/a	n/a
32.8419	0.8	T_INK	11	Incongruent	niebieski	blue	zielony	green	hit	n/a
33.6223	n/a	RESPONSE	n/a	n/a	n/a	n/a	n/a	n/a	n/a	green
33.6419	0.5167	FEEDBACK	n/a	n/a	n/a	n/a	n/a	n/a	n/a	n/a
34.1586	1.0167	ITI	n/a	n/a	n/a	n/a	n/a	n/a	n/a	n/a
35.1753	0.5167	FIXCROSS	n/a	n/a	n/a	n/a	n/a	n/a	n/a	n/a
35.6919	0.95	T_INK	12	Incongruent	zielony	green	czerwony	red	hit	n/a
36.6106	n/a	RESPONSE	n/a	n/a	n/a	n/a	n/a	n/a	n/a	red
36.642	0.5167	FEEDBACK	n/a	n/a	n/a	n/a	n/a	n/a	n/a	n/a
37.1586	1.0333	ITI	n/a	n/a	n/a	n/a	n/a	n/a	n/a	n/a
51.1207	n/a	RESPONSE	n/a	n/a	n/a	n/a	n/a	n/a	n/a	n/a
51.1754	1.0167	ITI	n/a	n/a	n/a	n/a	n/a	n/a	n/a	n/a
52.1921	0.5167	FIXCROSS	n/a	n/a	n/a	n/a	n/a	n/a	n/a	n/a
52.7088	1.0833	INK	1	Incongruent	czerwony	red	zielony	green	hit	n/a
53.7734	n/a	RESPONSE	n/a	n/a	n/a	n/a	n/a	n/a	n/a	green
53.7921	1.0167	ITI	n/a	n/a	n/a	n/a	n/a	n/a	n/a	n/a
54.8088	0.5167	FIXCROSS	n/a	n/a	n/a	n/a	n/a	n/a	n/a	n/a
55.3254	0.5833	INK	2	Incongruent	zielony	green	czerwony	red	hit	n/a
55.8828	n/a	RESPONSE	n/a	n/a	n/a	n/a	n/a	n/a	n/a	red
55.9088	1.0167	ITI	n/a	n/a	n/a	n/a	n/a	n/a	n/a	n/a
56.9255	0.5167	FIXCROSS	n/a	n/a	n/a	n/a	n/a	n/a	n/a	n/a
57.4421	0.5667	INK	3	Incongruent	niebieski	blue	żółty	yellow	hit	n/a
57.9762	n/a	RESPONSE	n/a	n/a	n/a	n/a	n/a	n/a	n/a	yellow
58.0088	1.0167	ITI	n/a	n/a	n/a	n/a	n/a	n/a	n/a	n/a
59.0255	0.5167	FIXCROSS	n/a	n/a	n/a	n/a	n/a	n/a	n/a	n/a
59.5421	0.9333	INK	4	Incongruent	zielony	green	niebieski	blue	hit	n/a
60.4532	n/a	RESPONSE	n/a	n/a	n/a	n/a	n/a	n/a	n/a	blue
60.4755	1.0167	ITI	n/a	n/a	n/a	n/a	n/a	n/a	n/a	n/a
61.4922	0.5167	FIXCROSS	n/a	n/a	n/a	n/a	n/a	n/a	n/a	n/a
62.0088	0.8667	INK	5	Incongruent	czerwony	red	zielony	green	hit	n/a
62.8503	n/a	RESPONSE	n/a	n/a	n/a	n/a	n/a	n/a	n/a	green
62.8755	1.0167	ITI	n/a	n/a	n/a	n/a	n/a	n/a	n/a	n/a
63.8922	0.5167	FIXCROSS	n/a	n/a	n/a	n/a	n/a	n/a	n/a	n/a
64.4088	0.7833	INK	6	Incongruent	żółty	yellow	zielony	green	hit	n/a
65.1674	n/a	RESPONSE	n/a	n/a	n/a	n/a	n/a	n/a	n/a	green
65.1922	1.0167	ITI	n/a	n/a	n/a	n/a	n/a	n/a	n/a	n/a
66.2089	0.5167	FIXCROSS	n/a	n/a	n/a	n/a	n/a	n/a	n/a	n/a
66.7255	0.6833	INK	7	Incongruent	niebieski	blue	zielony	green	hit	n/a
67.3886	n/a	RESPONSE	n/a	n/a	n/a	n/a	n/a	n/a	n/a	green
67.4089	1.0167	ITI	n/a	n/a	n/a	n/a	n/a	n/a	n/a	n/a
68.4255	0.5167	FIXCROSS	n/a	n/a	n/a	n/a	n/a	n/a	n/a	n/a
68.9422	0.6667	INK	8	Neutral	xxxxxxxxx	xxxxxxxxx	czerwony	red	hit	n/a
69.578	n/a	RESPONSE	n/a	n/a	n/a	n/a	n/a	n/a	n/a	red
69.6089	1.0167	ITI	n/a	n/a	n/a	n/a	n/a	n/a	n/a	n/a
70.6256	0.5167	FIXCROSS	n/a	n/a	n/a	n/a	n/a	n/a	n/a	n/a
71.1422	1.1	INK	9	Incongruent	żółty	yellow	zielony	green	hit	n/a
72.2147	n/a	RESPONSE	n/a	n/a	n/a	n/a	n/a	n/a	n/a	green
72.2422	1.0167	ITI	n/a	n/a	n/a	n/a	n/a	n/a	n/a	n/a
73.2589	0.5167	FIXCROSS	n/a	n/a	n/a	n/a	n/a	n/a	n/a	n/a
73.7756	0.7667	INK	10	Neutral	xxxxxxxx	xxxxxxxx	zielony	green	hit	n/a
74.5158	n/a	RESPONSE	n/a	n/a	n/a	n/a	n/a	n/a	n/a	green
74.5423	1.0167	ITI	n/a	n/a	n/a	n/a	n/a	n/a	n/a	n/a
75.5589	0.5167	FIXCROSS	n/a	n/a	n/a	n/a	n/a	n/a	n/a	n/a
76.0756	0.9333	INK	11	Incongruent	czerwony	red	żółty	yellow	hit	n/a
76.9768	n/a	RESPONSE	n/a	n/a	n/a	n/a	n/a	n/a	n/a	yellow
77.0089	1.0167	ITI	n/a	n/a	n/a	n/a	n/a	n/a	n/a	n/a
78.0256	0.5167	FIXCROSS	n/a	n/a	n/a	n/a	n/a	n/a	n/a	n/a
78.5423	0.6	INK	12	Neutral	xxxxxxxxx	xxxxxxxxx	żółty	yellow	hit	n/a
79.1181	n/a	RESPONSE	n/a	n/a	n/a	n/a	n/a	n/a	n/a	yellow
79.1423	1.0167	ITI	n/a	n/a	n/a	n/a	n/a	n/a	n/a	n/a
80.159	0.5167	FIXCROSS	n/a	n/a	n/a	n/a	n/a	n/a	n/a	n/a
80.6756	1.0	INK	13	Incongruent	żółty	yellow	niebieski	blue	hit	n/a
81.6431	n/a	RESPONSE	n/a	n/a	n/a	n/a	n/a	n/a	n/a	blue
81.6756	1.0167	ITI	n/a	n/a	n/a	n/a	n/a	n/a	n/a	n/a
82.6923	0.5167	FIXCROSS	n/a	n/a	n/a	n/a	n/a	n/a	n/a	n/a
83.209	1.0	INK	14	Incongruent	niebieski	blue	żółty	yellow	hit	n/a
84.184	n/a	RESPONSE	n/a	n/a	n/a	n/a	n/a	n/a	n/a	yellow
84.209	1.0167	ITI	n/a	n/a	n/a	n/a	n/a	n/a	n/a	n/a
85.2257	0.5167	FIXCROSS	n/a	n/a	n/a	n/a	n/a	n/a	n/a	n/a
85.7423	0.6667	INK	15	Neutral	xxxxxxx	xxxxxxx	niebieski	blue	hit	n/a
86.3893	n/a	RESPONSE	n/a	n/a	n/a	n/a	n/a	n/a	n/a	blue
86.409	1.0167	ITI	n/a	n/a	n/a	n/a	n/a	n/a	n/a	n/a
87.4257	0.5167	FIXCROSS	n/a	n/a	n/a	n/a	n/a	n/a	n/a	n/a
87.9424	1.25	INK	16	Incongruent	czerwony	red	niebieski	blue	hit	n/a
89.1699	n/a	RESPONSE	n/a	n/a	n/a	n/a	n/a	n/a	n/a	blue
89.1924	1.0167	ITI	n/a	n/a	n/a	n/a	n/a	n/a	n/a	n/a
90.209	0.5167	FIXCROSS	n/a	n/a	n/a	n/a	n/a	n/a	n/a	n/a
90.7257	0.75	INK	17	Neutral	xxxxxxx	xxxxxxx	czerwony	red	hit	n/a
91.4551	n/a	RESPONSE	n/a	n/a	n/a	n/a	n/a	n/a	n/a	red
91.4757	1.0167	ITI	n/a	n/a	n/a	n/a	n/a	n/a	n/a	n/a
92.4924	0.5167	FIXCROSS	n/a	n/a	n/a	n/a	n/a	n/a	n/a	n/a
93.0091	0.7	INK	18	Neutral	xxxxxxx	xxxxxxx	niebieski	blue	hit	n/a
93.6763	n/a	RESPONSE	n/a	n/a	n/a	n/a	n/a	n/a	n/a	blue
93.7091	1.0167	ITI	n/a	n/a	n/a	n/a	n/a	n/a	n/a	n/a
94.7258	0.5167	FIXCROSS	n/a	n/a	n/a	n/a	n/a	n/a	n/a	n/a
95.2424	1.3833	INK	19	Incongruent	żółty	yellow	czerwony	red	hit	n/a
96.6008	n/a	RESPONSE	n/a	n/a	n/a	n/a	n/a	n/a	n/a	red
96.6258	1.0167	ITI	n/a	n/a	n/a	n/a	n/a	n/a	n/a	n/a
97.6424	0.5167	FIXCROSS	n/a	n/a	n/a	n/a	n/a	n/a	n/a	n/a
98.1591	0.7167	INK	20	Neutral	xxxxxxxx	xxxxxxxx	zielony	green	hit	n/a
98.854	n/a	RESPONSE	n/a	n/a	n/a	n/a	n/a	n/a	n/a	green
98.8758	1.0167	ITI	n/a	n/a	n/a	n/a	n/a	n/a	n/a	n/a
99.8925	0.5167	FIXCROSS	n/a	n/a	n/a	n/a	n/a	n/a	n/a	n/a
100.4091	0.85	INK	21	Incongruent	niebieski	blue	czerwony	red	hit	n/a
101.2351	n/a	RESPONSE	n/a	n/a	n/a	n/a	n/a	n/a	n/a	red
101.2591	1.0166	ITI	n/a	n/a	n/a	n/a	n/a	n/a	n/a	n/a
102.2757	0.5168	FIXCROSS	n/a	n/a	n/a	n/a	n/a	n/a	n/a	n/a
102.7925	0.6	INK	22	Neutral	xxxxxxxx	xxxxxxxx	niebieski	blue	hit	n/a
103.3605	n/a	RESPONSE	n/a	n/a	n/a	n/a	n/a	n/a	n/a	blue
103.3925	1.0167	ITI	n/a	n/a	n/a	n/a	n/a	n/a	n/a	n/a
104.4092	0.5167	FIXCROSS	n/a	n/a	n/a	n/a	n/a	n/a	n/a	n/a
104.9258	0.6667	INK	23	Incongruent	czerwony	red	niebieski	blue	hit	n/a
105.5658	n/a	RESPONSE	n/a	n/a	n/a	n/a	n/a	n/a	n/a	blue
105.5925	1.0167	ITI	n/a	n/a	n/a	n/a	n/a	n/a	n/a	n/a
106.6092	0.5167	FIXCROSS	n/a	n/a	n/a	n/a	n/a	n/a	n/a	n/a
107.1258	0.7833	INK	24	Neutral	xxxxxxx	xxxxxxx	żółty	yellow	hit	n/a
107.8829	n/a	RESPONSE	n/a	n/a	n/a	n/a	n/a	n/a	n/a	yellow
107.9092	1.0167	ITI	n/a	n/a	n/a	n/a	n/a	n/a	n/a	n/a
108.9258	0.5167	FIXCROSS	n/a	n/a	n/a	n/a	n/a	n/a	n/a	n/a
109.4425	0.4833	INK	25	Neutral	xxxxxxxx	xxxxxxxx	żółty	yellow	hit	n/a
109.8964	n/a	RESPONSE	n/a	n/a	n/a	n/a	n/a	n/a	n/a	yellow
109.9259	1.0167	ITI	n/a	n/a	n/a	n/a	n/a	n/a	n/a	n/a
110.9425	0.5167	FIXCROSS	n/a	n/a	n/a	n/a	n/a	n/a	n/a	n/a
111.4592	0.6167	INK	26	Neutral	xxxxx	xxxxx	niebieski	blue	hit	n/a
112.0538	n/a	RESPONSE	n/a	n/a	n/a	n/a	n/a	n/a	n/a	blue
112.0759	1.0167	ITI	n/a	n/a	n/a	n/a	n/a	n/a	n/a	n/a
113.0926	0.5167	FIXCROSS	n/a	n/a	n/a	n/a	n/a	n/a	n/a	n/a
113.6092	0.7333	INK	27	Neutral	xxxxx	xxxxx	czerwony	red	hit	n/a
114.3229	n/a	RESPONSE	n/a	n/a	n/a	n/a	n/a	n/a	n/a	red
114.3426	1.0167	ITI	n/a	n/a	n/a	n/a	n/a	n/a	n/a	n/a
115.3592	0.5167	FIXCROSS	n/a	n/a	n/a	n/a	n/a	n/a	n/a	n/a
115.8759	1.1167	INK	28	Incongruent	zielony	green	czerwony	red	hit	n/a
116.9597	n/a	RESPONSE	n/a	n/a	n/a	n/a	n/a	n/a	n/a	red
116.9926	1.0167	ITI	n/a	n/a	n/a	n/a	n/a	n/a	n/a	n/a
118.0093	0.5167	FIXCROSS	n/a	n/a	n/a	n/a	n/a	n/a	n/a	n/a
118.5259	0.6167	INK	29	Incongruent	żółty	yellow	czerwony	red	hit	n/a
119.117	n/a	RESPONSE	n/a	n/a	n/a	n/a	n/a	n/a	n/a	red
119.1426	1.0167	ITI	n/a	n/a	n/a	n/a	n/a	n/a	n/a	n/a
120.1593	0.5167	FIXCROSS	n/a	n/a	n/a	n/a	n/a	n/a	n/a	n/a
120.676	0.7833	INK	30	Incongruent	czerwony	red	niebieski	blue	hit	n/a
121.4342	n/a	RESPONSE	n/a	n/a	n/a	n/a	n/a	n/a	n/a	blue
121.4593	1.0167	ITI	n/a	n/a	n/a	n/a	n/a	n/a	n/a	n/a
122.476	0.5167	FIXCROSS	n/a	n/a	n/a	n/a	n/a	n/a	n/a	n/a
122.9926	0.5333	INK	31	Neutral	xxxxx	xxxxx	niebieski	blue	hit	n/a
123.4956	n/a	RESPONSE	n/a	n/a	n/a	n/a	n/a	n/a	n/a	blue
123.526	1.0167	ITI	n/a	n/a	n/a	n/a	n/a	n/a	n/a	n/a
124.5426	0.5167	FIXCROSS	n/a	n/a	n/a	n/a	n/a	n/a	n/a	n/a
125.0593	0.9667	INK	32	Incongruent	czerwony	red	zielony	green	hit	n/a
126.0046	n/a	RESPONSE	n/a	n/a	n/a	n/a	n/a	n/a	n/a	green
126.026	1.0167	ITI	n/a	n/a	n/a	n/a	n/a	n/a	n/a	n/a
127.0427	0.5167	FIXCROSS	n/a	n/a	n/a	n/a	n/a	n/a	n/a	n/a
127.5593	0.7833	INK	33	Neutral	xxxxxxx	xxxxxxx	czerwony	red	hit	n/a
128.3217	n/a	RESPONSE	n/a	n/a	n/a	n/a	n/a	n/a	n/a	red
128.3427	1.0167	ITI	n/a	n/a	n/a	n/a	n/a	n/a	n/a	n/a
129.3594	0.5167	FIXCROSS	n/a	n/a	n/a	n/a	n/a	n/a	n/a	n/a
129.876	0.9667	INK	34	Incongruent	żółty	yellow	niebieski	blue	hit	n/a
130.8147	n/a	RESPONSE	n/a	n/a	n/a	n/a	n/a	n/a	n/a	blue
130.8427	1.0167	ITI	n/a	n/a	n/a	n/a	n/a	n/a	n/a	n/a
131.8594	0.5167	FIXCROSS	n/a	n/a	n/a	n/a	n/a	n/a	n/a	n/a
132.376	1.1333	INK	35	Neutral	xxxxx	xxxxx	zielony	green	hit	n/a
133.4834	n/a	RESPONSE	n/a	n/a	n/a	n/a	n/a	n/a	n/a	green
133.5094	1.0167	ITI	n/a	n/a	n/a	n/a	n/a	n/a	n/a	n/a
134.5261	0.5167	FIXCROSS	n/a	n/a	n/a	n/a	n/a	n/a	n/a	n/a
135.0427	0.6333	INK	36	Incongruent	niebieski	blue	zielony	green	hit	n/a
135.6407	n/a	RESPONSE	n/a	n/a	n/a	n/a	n/a	n/a	n/a	green
135.6761	1.0167	ITI	n/a	n/a	n/a	n/a	n/a	n/a	n/a	n/a
136.6927	0.5167	FIXCROSS	n/a	n/a	n/a	n/a	n/a	n/a	n/a	n/a
137.2094	0.6	INK	37	Neutral	xxxxxxx	xxxxxxx	niebieski	blue	hit	n/a
137.7821	n/a	RESPONSE	n/a	n/a	n/a	n/a	n/a	n/a	n/a	blue
137.8094	1.0167	ITI	n/a	n/a	n/a	n/a	n/a	n/a	n/a	n/a
138.8261	0.5167	FIXCROSS	n/a	n/a	n/a	n/a	n/a	n/a	n/a	n/a
139.3428	0.5167	INK	38	Neutral	xxxxx	xxxxx	niebieski	blue	hit	n/a
139.8276	n/a	RESPONSE	n/a	n/a	n/a	n/a	n/a	n/a	n/a	blue
139.8594	1.0167	ITI	n/a	n/a	n/a	n/a	n/a	n/a	n/a	n/a
140.8761	0.5167	FIXCROSS	n/a	n/a	n/a	n/a	n/a	n/a	n/a	n/a
141.3928	0.7167	INK	39	Neutral	xxxxxxx	xxxxxxx	żółty	yellow	hit	n/a
142.0808	n/a	RESPONSE	n/a	n/a	n/a	n/a	n/a	n/a	n/a	yellow
142.1095	1.0167	ITI	n/a	n/a	n/a	n/a	n/a	n/a	n/a	n/a
143.1261	0.5167	FIXCROSS	n/a	n/a	n/a	n/a	n/a	n/a	n/a	n/a
143.6428	1.1833	INK	40	Incongruent	niebieski	blue	zielony	green	hit	n/a
144.7975	n/a	RESPONSE	n/a	n/a	n/a	n/a	n/a	n/a	n/a	green
144.8261	1.0167	ITI	n/a	n/a	n/a	n/a	n/a	n/a	n/a	n/a
145.8428	0.5167	FIXCROSS	n/a	n/a	n/a	n/a	n/a	n/a	n/a	n/a
146.3595	0.8	INK	41	Incongruent	czerwony	red	żółty	yellow	incorrect	n/a
147.1306	n/a	RESPONSE	n/a	n/a	n/a	n/a	n/a	n/a	n/a	red
147.1595	1.0167	ITI	n/a	n/a	n/a	n/a	n/a	n/a	n/a	n/a
148.1762	0.5167	FIXCROSS	n/a	n/a	n/a	n/a	n/a	n/a	n/a	n/a
148.6928	0.6167	INK	42	Neutral	xxxxxxx	xxxxxxx	żółty	yellow	hit	n/a
149.288	n/a	RESPONSE	n/a	n/a	n/a	n/a	n/a	n/a	n/a	yellow
149.3095	1.0167	ITI	n/a	n/a	n/a	n/a	n/a	n/a	n/a	n/a
150.3262	0.5167	FIXCROSS	n/a	n/a	n/a	n/a	n/a	n/a	n/a	n/a
150.8429	0.5333	INK	43	Neutral	xxxxxxxx	xxxxxxxx	żółty	yellow	hit	n/a
151.3493	n/a	RESPONSE	n/a	n/a	n/a	n/a	n/a	n/a	n/a	yellow
151.3762	1.0167	ITI	n/a	n/a	n/a	n/a	n/a	n/a	n/a	n/a
152.3929	0.5167	FIXCROSS	n/a	n/a	n/a	n/a	n/a	n/a	n/a	n/a
152.9095	0.7	INK	44	Incongruent	czerwony	red	żółty	yellow	hit	n/a
153.5866	n/a	RESPONSE	n/a	n/a	n/a	n/a	n/a	n/a	n/a	yellow
153.6095	1.0167	ITI	n/a	n/a	n/a	n/a	n/a	n/a	n/a	n/a
154.6262	0.5167	FIXCROSS	n/a	n/a	n/a	n/a	n/a	n/a	n/a	n/a
155.1429	0.8833	INK	45	Neutral	xxxxxxx	xxxxxxx	czerwony	red	hit	n/a
155.9996	n/a	RESPONSE	n/a	n/a	n/a	n/a	n/a	n/a	n/a	red
156.0262	1.0167	ITI	n/a	n/a	n/a	n/a	n/a	n/a	n/a	n/a
157.0429	0.5167	FIXCROSS	n/a	n/a	n/a	n/a	n/a	n/a	n/a	n/a
157.5596	0.6833	INK	46	Neutral	xxxxxxxxx	xxxxxxxxx	żółty	yellow	hit	n/a
158.2209	n/a	RESPONSE	n/a	n/a	n/a	n/a	n/a	n/a	n/a	yellow
158.2429	1.0167	ITI	n/a	n/a	n/a	n/a	n/a	n/a	n/a	n/a
159.2596	0.5167	FIXCROSS	n/a	n/a	n/a	n/a	n/a	n/a	n/a	n/a
159.7763	1.2667	INK	47	Incongruent	niebieski	blue	czerwony	red	hit	n/a
161.0173	n/a	RESPONSE	n/a	n/a	n/a	n/a	n/a	n/a	n/a	red
161.0429	1.0167	ITI	n/a	n/a	n/a	n/a	n/a	n/a	n/a	n/a
162.0596	0.5167	FIXCROSS	n/a	n/a	n/a	n/a	n/a	n/a	n/a	n/a
162.5763	0.6667	INK	48	Neutral	xxxxxxxx	xxxxxxxx	niebieski	blue	hit	n/a
163.2227	n/a	RESPONSE	n/a	n/a	n/a	n/a	n/a	n/a	n/a	blue
163.2429	1.0167	ITI	n/a	n/a	n/a	n/a	n/a	n/a	n/a	n/a
164.2596	0.5167	FIXCROSS	n/a	n/a	n/a	n/a	n/a	n/a	n/a	n/a
164.7763	0.6	INK	49	Neutral	xxxxxxxx	xxxxxxxx	niebieski	blue	hit	n/a
165.348	n/a	RESPONSE	n/a	n/a	n/a	n/a	n/a	n/a	n/a	blue
165.3763	1.0167	ITI	n/a	n/a	n/a	n/a	n/a	n/a	n/a	n/a
166.393	0.5167	FIXCROSS	n/a	n/a	n/a	n/a	n/a	n/a	n/a	n/a
166.9097	0.8667	INK	50	Neutral	xxxxxxxxx	xxxxxxxxx	czerwony	red	hit	n/a
167.7451	n/a	RESPONSE	n/a	n/a	n/a	n/a	n/a	n/a	n/a	red
167.7763	1.0167	ITI	n/a	n/a	n/a	n/a	n/a	n/a	n/a	n/a
168.793	0.5167	FIXCROSS	n/a	n/a	n/a	n/a	n/a	n/a	n/a	n/a
169.3097	0.7833	INK	51	Neutral	xxxxxxxxx	xxxxxxxxx	żółty	yellow	hit	n/a
170.0622	n/a	RESPONSE	n/a	n/a	n/a	n/a	n/a	n/a	n/a	yellow
170.093	1.0167	ITI	n/a	n/a	n/a	n/a	n/a	n/a	n/a	n/a
171.1097	0.5167	FIXCROSS	n/a	n/a	n/a	n/a	n/a	n/a	n/a	n/a
171.6263	0.45	INK	52	Neutral	xxxxxxxxx	xxxxxxxxx	zielony	green	hit	n/a
172.0437	n/a	RESPONSE	n/a	n/a	n/a	n/a	n/a	n/a	n/a	green
172.0764	1.0167	ITI	n/a	n/a	n/a	n/a	n/a	n/a	n/a	n/a
173.093	0.5167	FIXCROSS	n/a	n/a	n/a	n/a	n/a	n/a	n/a	n/a
173.6097	0.6167	INK	53	Neutral	xxxxxxxx	xxxxxxxx	zielony	green	hit	n/a
174.2011	n/a	RESPONSE	n/a	n/a	n/a	n/a	n/a	n/a	n/a	green
174.2264	1.0167	ITI	n/a	n/a	n/a	n/a	n/a	n/a	n/a	n/a
175.243	0.5167	FIXCROSS	n/a	n/a	n/a	n/a	n/a	n/a	n/a	n/a
175.7597	0.55	INK	54	Neutral	xxxxxxxxx	xxxxxxxxx	zielony	green	hit	n/a
176.2785	n/a	RESPONSE	n/a	n/a	n/a	n/a	n/a	n/a	n/a	green
176.3097	1.0167	ITI	n/a	n/a	n/a	n/a	n/a	n/a	n/a	n/a
177.3264	0.5167	FIXCROSS	n/a	n/a	n/a	n/a	n/a	n/a	n/a	n/a
177.8431	0.9	INK	55	Neutral	xxxxx	xxxxx	czerwony	red	hit	n/a
178.7235	n/a	RESPONSE	n/a	n/a	n/a	n/a	n/a	n/a	n/a	red
178.7431	1.0167	ITI	n/a	n/a	n/a	n/a	n/a	n/a	n/a	n/a
179.7597	0.5167	FIXCROSS	n/a	n/a	n/a	n/a	n/a	n/a	n/a	n/a
180.2764	1.1167	INK	56	Incongruent	niebieski	blue	żółty	yellow	hit	n/a
181.3602	n/a	RESPONSE	n/a	n/a	n/a	n/a	n/a	n/a	n/a	yellow
181.3931	1.0167	ITI	n/a	n/a	n/a	n/a	n/a	n/a	n/a	n/a
182.4098	0.5167	FIXCROSS	n/a	n/a	n/a	n/a	n/a	n/a	n/a	n/a
182.9264	0.8167	INK	57	Incongruent	żółty	yellow	niebieski	blue	hit	n/a
183.7093	n/a	RESPONSE	n/a	n/a	n/a	n/a	n/a	n/a	n/a	blue
183.7431	1.0167	ITI	n/a	n/a	n/a	n/a	n/a	n/a	n/a	n/a
184.7598	0.5167	FIXCROSS	n/a	n/a	n/a	n/a	n/a	n/a	n/a	n/a
185.2765	1.1333	INK	58	Incongruent	zielony	green	żółty	yellow	hit	n/a
186.378	n/a	RESPONSE	n/a	n/a	n/a	n/a	n/a	n/a	n/a	yellow
186.4098	1.0167	ITI	n/a	n/a	n/a	n/a	n/a	n/a	n/a	n/a
187.4265	0.5167	FIXCROSS	n/a	n/a	n/a	n/a	n/a	n/a	n/a	n/a
187.9431	0.8667	INK	59	Neutral	xxxxxxxxx	xxxxxxxxx	zielony	green	hit	n/a
188.7911	n/a	RESPONSE	n/a	n/a	n/a	n/a	n/a	n/a	n/a	green
188.8098	1.0167	ITI	n/a	n/a	n/a	n/a	n/a	n/a	n/a	n/a
189.8265	0.5167	FIXCROSS	n/a	n/a	n/a	n/a	n/a	n/a	n/a	n/a
190.3432	1.5833	INK	60	Incongruent	zielony	green	żółty	yellow	hit	n/a
191.9072	n/a	RESPONSE	n/a	n/a	n/a	n/a	n/a	n/a	n/a	yellow
191.9265	1.0167	ITI	n/a	n/a	n/a	n/a	n/a	n/a	n/a	n/a
192.9432	0.5167	FIXCROSS	n/a	n/a	n/a	n/a	n/a	n/a	n/a	n/a
193.4599	0.9	INK	61	Incongruent	zielony	green	żółty	yellow	hit	n/a
194.3362	n/a	RESPONSE	n/a	n/a	n/a	n/a	n/a	n/a	n/a	yellow
194.3599	1.0167	ITI	n/a	n/a	n/a	n/a	n/a	n/a	n/a	n/a
195.3765	0.5167	FIXCROSS	n/a	n/a	n/a	n/a	n/a	n/a	n/a	n/a
195.8932	1.0667	INK	62	Incongruent	zielony	green	niebieski	blue	hit	n/a
196.9411	n/a	RESPONSE	n/a	n/a	n/a	n/a	n/a	n/a	n/a	blue
196.9599	1.0167	ITI	n/a	n/a	n/a	n/a	n/a	n/a	n/a	n/a
197.9766	0.5167	FIXCROSS	n/a	n/a	n/a	n/a	n/a	n/a	n/a	n/a
198.4932	0.7667	INK	63	Neutral	xxxxx	xxxxx	zielony	green	hit	n/a
199.2262	n/a	RESPONSE	n/a	n/a	n/a	n/a	n/a	n/a	n/a	green
199.2599	1.0167	ITI	n/a	n/a	n/a	n/a	n/a	n/a	n/a	n/a
200.2766	0.5167	FIXCROSS	n/a	n/a	n/a	n/a	n/a	n/a	n/a	n/a
200.7932	0.7167	INK	64	Neutral	xxxxx	xxxxx	zielony	green	hit	n/a
201.4794	n/a	RESPONSE	n/a	n/a	n/a	n/a	n/a	n/a	n/a	green
201.5099	1.0167	ITI	n/a	n/a	n/a	n/a	n/a	n/a	n/a	n/a
202.5266	0.5167	FIXCROSS	n/a	n/a	n/a	n/a	n/a	n/a	n/a	n/a
203.0433	1.2333	INK	65	Incongruent	żółty	yellow	czerwony	red	hit	n/a
204.244	n/a	RESPONSE	n/a	n/a	n/a	n/a	n/a	n/a	n/a	red
204.2766	1.0167	ITI	n/a	n/a	n/a	n/a	n/a	n/a	n/a	n/a
205.2933	0.5167	FIXCROSS	n/a	n/a	n/a	n/a	n/a	n/a	n/a	n/a
205.81	0.6333	INK	66	Neutral	xxxxxxxx	xxxxxxxx	żółty	yellow	hit	n/a
206.4173	n/a	RESPONSE	n/a	n/a	n/a	n/a	n/a	n/a	n/a	yellow
206.4433	1.0167	ITI	n/a	n/a	n/a	n/a	n/a	n/a	n/a	n/a
207.46	0.5167	FIXCROSS	n/a	n/a	n/a	n/a	n/a	n/a	n/a	n/a
207.9766	0.9	INK	67	Neutral	xxxxxxxxx	xxxxxxxxx	czerwony	red	hit	n/a
208.8463	n/a	RESPONSE	n/a	n/a	n/a	n/a	n/a	n/a	n/a	red
208.8766	1.0167	ITI	n/a	n/a	n/a	n/a	n/a	n/a	n/a	n/a
209.8933	0.5167	FIXCROSS	n/a	n/a	n/a	n/a	n/a	n/a	n/a	n/a
210.41	1.7	INK	68	Incongruent	żółty	yellow	zielony	green	hit	n/a
212.0903	n/a	RESPONSE	n/a	n/a	n/a	n/a	n/a	n/a	n/a	green
212.11	1.0167	ITI	n/a	n/a	n/a	n/a	n/a	n/a	n/a	n/a
213.1267	0.5167	FIXCROSS	n/a	n/a	n/a	n/a	n/a	n/a	n/a	n/a
213.6433	0.7167	INK	69	Neutral	xxxxx	xxxxx	czerwony	red	hit	n/a
214.3275	n/a	RESPONSE	n/a	n/a	n/a	n/a	n/a	n/a	n/a	red
214.36	1.0167	ITI	n/a	n/a	n/a	n/a	n/a	n/a	n/a	n/a
215.3767	0.5167	FIXCROSS	n/a	n/a	n/a	n/a	n/a	n/a	n/a	n/a
215.8934	1.0	INK	70	Incongruent	zielony	green	niebieski	blue	hit	n/a
216.8683	n/a	RESPONSE	n/a	n/a	n/a	n/a	n/a	n/a	n/a	blue
216.8934	1.0167	ITI	n/a	n/a	n/a	n/a	n/a	n/a	n/a	n/a
217.91	0.5167	FIXCROSS	n/a	n/a	n/a	n/a	n/a	n/a	n/a	n/a
218.4267	0.7334	INK	71	Incongruent	zielony	green	czerwony	red	hit	n/a
219.1376	n/a	RESPONSE	n/a	n/a	n/a	n/a	n/a	n/a	n/a	red
219.1601	1.0167	ITI	n/a	n/a	n/a	n/a	n/a	n/a	n/a	n/a
220.1767	0.5167	FIXCROSS	n/a	n/a	n/a	n/a	n/a	n/a	n/a	n/a
220.6934	0.6	INK	72	Incongruent	niebieski	blue	czerwony	red	hit	n/a
221.2629	n/a	RESPONSE	n/a	n/a	n/a	n/a	n/a	n/a	n/a	red
221.2934	1.0833	ITI	n/a	n/a	n/a	n/a	n/a	n/a	n/a	n/a
252.9198	n/a	RESPONSE	n/a	n/a	n/a	n/a	n/a	n/a	n/a	n/a
252.977	1.0167	ITI	n/a	n/a	n/a	n/a	n/a	n/a	n/a	n/a
253.9937	0.5167	FIXCROSS	n/a	n/a	n/a	n/a	n/a	n/a	n/a	n/a
254.5103	1.6	T_COLOR_NAME	1	Neutral	czerwony	red	Neutral	Neutral	hit	n/a
256.0839	n/a	RESPONSE	n/a	n/a	n/a	n/a	n/a	n/a	n/a	red
256.1103	0.5167	FEEDBACK	n/a	n/a	n/a	n/a	n/a	n/a	n/a	n/a
256.627	1.0167	ITI	n/a	n/a	n/a	n/a	n/a	n/a	n/a	n/a
257.6437	0.5167	FIXCROSS	n/a	n/a	n/a	n/a	n/a	n/a	n/a	n/a
258.1604	1.1167	T_COLOR_NAME	2	Incongruent	czerwony	red	żółty	yellow	hit	n/a
259.248	n/a	RESPONSE	n/a	n/a	n/a	n/a	n/a	n/a	n/a	red
259.277	0.5167	FEEDBACK	n/a	n/a	n/a	n/a	n/a	n/a	n/a	n/a
259.7937	1.0167	ITI	n/a	n/a	n/a	n/a	n/a	n/a	n/a	n/a
260.8104	0.5167	FIXCROSS	n/a	n/a	n/a	n/a	n/a	n/a	n/a	n/a
261.327	1.0167	T_COLOR_NAME	3	Incongruent	niebieski	blue	żółty	yellow	hit	n/a
262.3162	n/a	RESPONSE	n/a	n/a	n/a	n/a	n/a	n/a	n/a	blue
262.3437	0.5167	FEEDBACK	n/a	n/a	n/a	n/a	n/a	n/a	n/a	n/a
262.8604	1.0167	ITI	n/a	n/a	n/a	n/a	n/a	n/a	n/a	n/a
263.8771	0.5167	FIXCROSS	n/a	n/a	n/a	n/a	n/a	n/a	n/a	n/a
264.3937	1.2	T_COLOR_NAME	4	Neutral	czerwony	red	Neutral	Neutral	hit	n/a
265.5602	n/a	RESPONSE	n/a	n/a	n/a	n/a	n/a	n/a	n/a	red
265.5937	0.5167	FEEDBACK	n/a	n/a	n/a	n/a	n/a	n/a	n/a	n/a
266.1104	1.0167	ITI	n/a	n/a	n/a	n/a	n/a	n/a	n/a	n/a
267.1271	0.5167	FIXCROSS	n/a	n/a	n/a	n/a	n/a	n/a	n/a	n/a
267.6438	1.2167	T_COLOR_NAME	5	Neutral	zielony	green	Neutral	Neutral	hit	n/a
268.8361	n/a	RESPONSE	n/a	n/a	n/a	n/a	n/a	n/a	n/a	green
268.8604	0.5167	FEEDBACK	n/a	n/a	n/a	n/a	n/a	n/a	n/a	n/a
269.3771	1.0167	ITI	n/a	n/a	n/a	n/a	n/a	n/a	n/a	n/a
270.3938	0.5167	FIXCROSS	n/a	n/a	n/a	n/a	n/a	n/a	n/a	n/a
270.9104	0.9167	T_COLOR_NAME	6	Incongruent	zielony	green	żółty	yellow	hit	n/a
271.7925	n/a	RESPONSE	n/a	n/a	n/a	n/a	n/a	n/a	n/a	green
271.8271	0.5167	FEEDBACK	n/a	n/a	n/a	n/a	n/a	n/a	n/a	n/a
272.3438	1.0167	ITI	n/a	n/a	n/a	n/a	n/a	n/a	n/a	n/a
273.3605	0.5167	FIXCROSS	n/a	n/a	n/a	n/a	n/a	n/a	n/a	n/a
273.8771	1.2333	T_COLOR_NAME	7	Neutral	niebieski	blue	Neutral	Neutral	hit	n/a
275.0844	n/a	RESPONSE	n/a	n/a	n/a	n/a	n/a	n/a	n/a	blue
275.1105	0.5167	FEEDBACK	n/a	n/a	n/a	n/a	n/a	n/a	n/a	n/a
275.6272	1.0167	ITI	n/a	n/a	n/a	n/a	n/a	n/a	n/a	n/a
276.6438	0.5167	FIXCROSS	n/a	n/a	n/a	n/a	n/a	n/a	n/a	n/a
277.1605	1.6667	T_COLOR_NAME	8	Incongruent	zielony	green	czerwony	red	hit	n/a
278.7919	n/a	RESPONSE	n/a	n/a	n/a	n/a	n/a	n/a	n/a	green
278.8272	0.5167	FEEDBACK	n/a	n/a	n/a	n/a	n/a	n/a	n/a	n/a
279.3438	1.0167	ITI	n/a	n/a	n/a	n/a	n/a	n/a	n/a	n/a
280.3605	0.5167	FIXCROSS	n/a	n/a	n/a	n/a	n/a	n/a	n/a	n/a
280.8772	0.9167	T_COLOR_NAME	9	Neutral	żółty	yellow	Neutral	Neutral	hit	n/a
281.7642	n/a	RESPONSE	n/a	n/a	n/a	n/a	n/a	n/a	n/a	yellow
281.7939	0.5167	FEEDBACK	n/a	n/a	n/a	n/a	n/a	n/a	n/a	n/a
282.3105	1.0167	ITI	n/a	n/a	n/a	n/a	n/a	n/a	n/a	n/a
283.3272	0.5167	FIXCROSS	n/a	n/a	n/a	n/a	n/a	n/a	n/a	n/a
283.8439	0.9833	T_COLOR_NAME	10	Incongruent	niebieski	blue	zielony	green	hit	n/a
284.8005	n/a	RESPONSE	n/a	n/a	n/a	n/a	n/a	n/a	n/a	blue
284.8272	0.5167	FEEDBACK	n/a	n/a	n/a	n/a	n/a	n/a	n/a	n/a
285.3439	1.0167	ITI	n/a	n/a	n/a	n/a	n/a	n/a	n/a	n/a
286.3606	0.5167	FIXCROSS	n/a	n/a	n/a	n/a	n/a	n/a	n/a	n/a
286.8772	0.7333	T_COLOR_NAME	11	Neutral	czerwony	red	Neutral	Neutral	hit	n/a
287.581	n/a	RESPONSE	n/a	n/a	n/a	n/a	n/a	n/a	n/a	red
287.6106	0.5167	FEEDBACK	n/a	n/a	n/a	n/a	n/a	n/a	n/a	n/a
288.1272	1.0167	ITI	n/a	n/a	n/a	n/a	n/a	n/a	n/a	n/a
289.1439	0.5167	FIXCROSS	n/a	n/a	n/a	n/a	n/a	n/a	n/a	n/a
289.6606	1.1333	T_COLOR_NAME	12	Incongruent	żółty	yellow	czerwony	red	hit	n/a
290.7611	n/a	RESPONSE	n/a	n/a	n/a	n/a	n/a	n/a	n/a	yellow
290.7939	0.5167	FEEDBACK	n/a	n/a	n/a	n/a	n/a	n/a	n/a	n/a
291.3106	1.0333	ITI	n/a	n/a	n/a	n/a	n/a	n/a	n/a	n/a
295.0598	n/a	RESPONSE	n/a	n/a	n/a	n/a	n/a	n/a	n/a	n/a
295.1273	1.0167	ITI	n/a	n/a	n/a	n/a	n/a	n/a	n/a	n/a
296.144	0.5167	FIXCROSS	n/a	n/a	n/a	n/a	n/a	n/a	n/a	n/a
296.6606	1.45	COLOR_NAME	1	Incongruent	zielony	green	żółty	yellow	hit	n/a
298.08	n/a	RESPONSE	n/a	n/a	n/a	n/a	n/a	n/a	n/a	green
298.1106	1.0167	ITI	n/a	n/a	n/a	n/a	n/a	n/a	n/a	n/a
299.1273	0.5167	FIXCROSS	n/a	n/a	n/a	n/a	n/a	n/a	n/a	n/a
299.644	0.7	COLOR_NAME	2	Neutral	niebieski	blue	Neutral	Neutral	hit	n/a
300.3173	n/a	RESPONSE	n/a	n/a	n/a	n/a	n/a	n/a	n/a	blue
300.344	1.0167	ITI	n/a	n/a	n/a	n/a	n/a	n/a	n/a	n/a
301.3607	0.5167	FIXCROSS	n/a	n/a	n/a	n/a	n/a	n/a	n/a	n/a
301.8773	0.95	COLOR_NAME	3	Incongruent	czerwony	red	zielony	green	hit	n/a
302.8101	n/a	RESPONSE	n/a	n/a	n/a	n/a	n/a	n/a	n/a	red
302.8274	1.0167	ITI	n/a	n/a	n/a	n/a	n/a	n/a	n/a	n/a
303.844	0.5167	FIXCROSS	n/a	n/a	n/a	n/a	n/a	n/a	n/a	n/a
304.3607	0.9833	COLOR_NAME	4	Incongruent	żółty	yellow	czerwony	red	hit	n/a
305.3191	n/a	RESPONSE	n/a	n/a	n/a	n/a	n/a	n/a	n/a	yellow
305.344	1.0167	ITI	n/a	n/a	n/a	n/a	n/a	n/a	n/a	n/a
306.3607	0.5167	FIXCROSS	n/a	n/a	n/a	n/a	n/a	n/a	n/a	n/a
306.8774	0.9333	COLOR_NAME	5	Neutral	czerwony	red	Neutral	Neutral	hit	n/a
307.7801	n/a	RESPONSE	n/a	n/a	n/a	n/a	n/a	n/a	n/a	red
307.8107	1.0167	ITI	n/a	n/a	n/a	n/a	n/a	n/a	n/a	n/a
308.8274	0.5166	FIXCROSS	n/a	n/a	n/a	n/a	n/a	n/a	n/a	n/a
309.344	0.9001	COLOR_NAME	6	Incongruent	niebieski	blue	zielony	green	hit	n/a
310.225	n/a	RESPONSE	n/a	n/a	n/a	n/a	n/a	n/a	n/a	blue
310.2441	1.0167	ITI	n/a	n/a	n/a	n/a	n/a	n/a	n/a	n/a
311.2607	0.5167	FIXCROSS	n/a	n/a	n/a	n/a	n/a	n/a	n/a	n/a
311.7774	1.5167	COLOR_NAME	7	Neutral	zielony	green	Neutral	Neutral	hit	n/a
313.2613	n/a	RESPONSE	n/a	n/a	n/a	n/a	n/a	n/a	n/a	green
313.2941	1.0167	ITI	n/a	n/a	n/a	n/a	n/a	n/a	n/a	n/a
314.3108	0.5167	FIXCROSS	n/a	n/a	n/a	n/a	n/a	n/a	n/a	n/a
314.8274	0.7333	COLOR_NAME	8	Incongruent	żółty	yellow	niebieski	blue	hit	n/a
315.5304	n/a	RESPONSE	n/a	n/a	n/a	n/a	n/a	n/a	n/a	yellow
315.5608	1.0167	ITI	n/a	n/a	n/a	n/a	n/a	n/a	n/a	n/a
316.5775	0.5167	FIXCROSS	n/a	n/a	n/a	n/a	n/a	n/a	n/a	n/a
317.0941	1.3833	COLOR_NAME	9	Neutral	zielony	green	Neutral	Neutral	hit	n/a
318.4548	n/a	RESPONSE	n/a	n/a	n/a	n/a	n/a	n/a	n/a	green
318.4775	1.0167	ITI	n/a	n/a	n/a	n/a	n/a	n/a	n/a	n/a
319.4941	0.5167	FIXCROSS	n/a	n/a	n/a	n/a	n/a	n/a	n/a	n/a
320.0108	0.8	COLOR_NAME	10	Neutral	żółty	yellow	Neutral	Neutral	hit	n/a
320.7879	n/a	RESPONSE	n/a	n/a	n/a	n/a	n/a	n/a	n/a	yellow
320.8108	1.0167	ITI	n/a	n/a	n/a	n/a	n/a	n/a	n/a	n/a
321.8275	0.5167	FIXCROSS	n/a	n/a	n/a	n/a	n/a	n/a	n/a	n/a
322.3442	0.75	COLOR_NAME	11	Neutral	niebieski	blue	Neutral	Neutral	hit	n/a
323.0732	n/a	RESPONSE	n/a	n/a	n/a	n/a	n/a	n/a	n/a	blue
323.0942	1.0167	ITI	n/a	n/a	n/a	n/a	n/a	n/a	n/a	n/a
324.1109	0.5167	FIXCROSS	n/a	n/a	n/a	n/a	n/a	n/a	n/a	n/a
324.6275	1.1167	COLOR_NAME	12	Incongruent	zielony	green	czerwony	red	hit	n/a
325.7259	n/a	RESPONSE	n/a	n/a	n/a	n/a	n/a	n/a	n/a	green
325.7442	1.0167	ITI	n/a	n/a	n/a	n/a	n/a	n/a	n/a	n/a
326.7609	0.5167	FIXCROSS	n/a	n/a	n/a	n/a	n/a	n/a	n/a	n/a
327.2775	0.55	COLOR_NAME	13	Neutral	czerwony	red	Neutral	Neutral	hit	n/a
327.8033	n/a	RESPONSE	n/a	n/a	n/a	n/a	n/a	n/a	n/a	red
327.8275	1.0167	ITI	n/a	n/a	n/a	n/a	n/a	n/a	n/a	n/a
328.8442	0.5167	FIXCROSS	n/a	n/a	n/a	n/a	n/a	n/a	n/a	n/a
329.3609	0.9167	COLOR_NAME	14	Incongruent	zielony	green	czerwony	red	hit	n/a
330.2483	n/a	RESPONSE	n/a	n/a	n/a	n/a	n/a	n/a	n/a	green
330.2776	1.0167	ITI	n/a	n/a	n/a	n/a	n/a	n/a	n/a	n/a
331.2942	0.5167	FIXCROSS	n/a	n/a	n/a	n/a	n/a	n/a	n/a	n/a
331.8109	0.7333	COLOR_NAME	15	Neutral	zielony	green	Neutral	Neutral	hit	n/a
332.5174	n/a	RESPONSE	n/a	n/a	n/a	n/a	n/a	n/a	n/a	green
332.5443	1.0167	ITI	n/a	n/a	n/a	n/a	n/a	n/a	n/a	n/a
333.5609	0.5167	FIXCROSS	n/a	n/a	n/a	n/a	n/a	n/a	n/a	n/a
334.0776	0.7833	COLOR_NAME	16	Incongruent	żółty	yellow	niebieski	blue	hit	n/a
334.8345	n/a	RESPONSE	n/a	n/a	n/a	n/a	n/a	n/a	n/a	yellow
334.8609	1.0167	ITI	n/a	n/a	n/a	n/a	n/a	n/a	n/a	n/a
335.8776	0.5167	FIXCROSS	n/a	n/a	n/a	n/a	n/a	n/a	n/a	n/a
336.3943	1.35	COLOR_NAME	17	Incongruent	zielony	green	niebieski	blue	hit	n/a
337.7111	n/a	RESPONSE	n/a	n/a	n/a	n/a	n/a	n/a	n/a	green
337.7443	1.0167	ITI	n/a	n/a	n/a	n/a	n/a	n/a	n/a	n/a
338.761	0.5167	FIXCROSS	n/a	n/a	n/a	n/a	n/a	n/a	n/a	n/a
339.2776	0.65	COLOR_NAME	18	Incongruent	czerwony	red	zielony	green	hit	n/a
339.9003	n/a	RESPONSE	n/a	n/a	n/a	n/a	n/a	n/a	n/a	red
339.9276	1.0167	ITI	n/a	n/a	n/a	n/a	n/a	n/a	n/a	n/a
340.9443	0.5167	FIXCROSS	n/a	n/a	n/a	n/a	n/a	n/a	n/a	n/a
341.461	0.7	COLOR_NAME	19	Neutral	żółty	yellow	Neutral	Neutral	hit	n/a
342.1376	n/a	RESPONSE	n/a	n/a	n/a	n/a	n/a	n/a	n/a	yellow
342.161	1.0167	ITI	n/a	n/a	n/a	n/a	n/a	n/a	n/a	n/a
343.1777	0.5167	FIXCROSS	n/a	n/a	n/a	n/a	n/a	n/a	n/a	n/a
343.6943	0.7667	COLOR_NAME	20	Incongruent	czerwony	red	żółty	yellow	hit	n/a
344.4387	n/a	RESPONSE	n/a	n/a	n/a	n/a	n/a	n/a	n/a	red
344.461	1.0167	ITI	n/a	n/a	n/a	n/a	n/a	n/a	n/a	n/a
345.4777	0.5167	FIXCROSS	n/a	n/a	n/a	n/a	n/a	n/a	n/a	n/a
345.9943	0.6833	COLOR_NAME	21	Neutral	zielony	green	Neutral	Neutral	hit	n/a
346.66	n/a	RESPONSE	n/a	n/a	n/a	n/a	n/a	n/a	n/a	green
346.6777	1.0167	ITI	n/a	n/a	n/a	n/a	n/a	n/a	n/a	n/a
347.6944	0.5167	FIXCROSS	n/a	n/a	n/a	n/a	n/a	n/a	n/a	n/a
348.211	1.1167	COLOR_NAME	22	Incongruent	zielony	green	niebieski	blue	hit	n/a
349.2967	n/a	RESPONSE	n/a	n/a	n/a	n/a	n/a	n/a	n/a	green
349.3277	1.0167	ITI	n/a	n/a	n/a	n/a	n/a	n/a	n/a	n/a
350.3444	0.5167	FIXCROSS	n/a	n/a	n/a	n/a	n/a	n/a	n/a	n/a
350.861	0.5667	COLOR_NAME	23	Neutral	żółty	yellow	Neutral	Neutral	hit	n/a
351.4061	n/a	RESPONSE	n/a	n/a	n/a	n/a	n/a	n/a	n/a	yellow
351.4277	1.0167	ITI	n/a	n/a	n/a	n/a	n/a	n/a	n/a	n/a
352.4444	0.5167	FIXCROSS	n/a	n/a	n/a	n/a	n/a	n/a	n/a	n/a
352.9611	0.6167	COLOR_NAME	24	Incongruent	niebieski	blue	żółty	yellow	hit	n/a
353.5474	n/a	RESPONSE	n/a	n/a	n/a	n/a	n/a	n/a	n/a	blue
353.5777	1.0167	ITI	n/a	n/a	n/a	n/a	n/a	n/a	n/a	n/a
354.5944	0.5167	FIXCROSS	n/a	n/a	n/a	n/a	n/a	n/a	n/a	n/a
355.1111	0.6	COLOR_NAME	25	Incongruent	niebieski	blue	czerwony	red	hit	n/a
355.6888	n/a	RESPONSE	n/a	n/a	n/a	n/a	n/a	n/a	n/a	blue
355.7111	1.0167	ITI	n/a	n/a	n/a	n/a	n/a	n/a	n/a	n/a
356.7278	0.5167	FIXCROSS	n/a	n/a	n/a	n/a	n/a	n/a	n/a	n/a
357.2444	0.7667	COLOR_NAME	26	Incongruent	żółty	yellow	zielony	green	hit	n/a
357.99	n/a	RESPONSE	n/a	n/a	n/a	n/a	n/a	n/a	n/a	yellow
358.0111	1.0167	ITI	n/a	n/a	n/a	n/a	n/a	n/a	n/a	n/a
359.0278	0.5167	FIXCROSS	n/a	n/a	n/a	n/a	n/a	n/a	n/a	n/a
359.5445	0.8333	COLOR_NAME	27	Incongruent	zielony	green	żółty	yellow	hit	n/a
360.355	n/a	RESPONSE	n/a	n/a	n/a	n/a	n/a	n/a	n/a	green
360.3778	1.0167	ITI	n/a	n/a	n/a	n/a	n/a	n/a	n/a	n/a
361.3945	0.5167	FIXCROSS	n/a	n/a	n/a	n/a	n/a	n/a	n/a	n/a
361.9111	1.1333	COLOR_NAME	28	Incongruent	niebieski	blue	zielony	green	hit	n/a
363.0237	n/a	RESPONSE	n/a	n/a	n/a	n/a	n/a	n/a	n/a	blue
363.0445	1.0167	ITI	n/a	n/a	n/a	n/a	n/a	n/a	n/a	n/a
364.0611	0.5167	FIXCROSS	n/a	n/a	n/a	n/a	n/a	n/a	n/a	n/a
364.5778	0.9167	COLOR_NAME	29	Incongruent	zielony	green	żółty	yellow	hit	n/a
365.4687	n/a	RESPONSE	n/a	n/a	n/a	n/a	n/a	n/a	n/a	green
365.4945	1.0167	ITI	n/a	n/a	n/a	n/a	n/a	n/a	n/a	n/a
366.5112	0.5167	FIXCROSS	n/a	n/a	n/a	n/a	n/a	n/a	n/a	n/a
367.0278	1.1833	COLOR_NAME	30	Neutral	czerwony	red	Neutral	Neutral	hit	n/a
368.1853	n/a	RESPONSE	n/a	n/a	n/a	n/a	n/a	n/a	n/a	red
368.2112	1.0167	ITI	n/a	n/a	n/a	n/a	n/a	n/a	n/a	n/a
369.2279	0.5167	FIXCROSS	n/a	n/a	n/a	n/a	n/a	n/a	n/a	n/a
369.7445	1.2167	COLOR_NAME	31	Neutral	żółty	yellow	Neutral	Neutral	hit	n/a
370.9339	n/a	RESPONSE	n/a	n/a	n/a	n/a	n/a	n/a	n/a	yellow
370.9612	1.0167	ITI	n/a	n/a	n/a	n/a	n/a	n/a	n/a	n/a
371.9779	0.5167	FIXCROSS	n/a	n/a	n/a	n/a	n/a	n/a	n/a	n/a
372.4945	0.95	COLOR_NAME	32	Neutral	żółty	yellow	Neutral	Neutral	hit	n/a
373.4108	n/a	RESPONSE	n/a	n/a	n/a	n/a	n/a	n/a	n/a	yellow
373.4446	1.0167	ITI	n/a	n/a	n/a	n/a	n/a	n/a	n/a	n/a
374.4612	0.5167	FIXCROSS	n/a	n/a	n/a	n/a	n/a	n/a	n/a	n/a
374.9779	1.35	COLOR_NAME	33	Incongruent	czerwony	red	niebieski	blue	hit	n/a
376.3033	n/a	RESPONSE	n/a	n/a	n/a	n/a	n/a	n/a	n/a	red
376.3279	1.0167	ITI	n/a	n/a	n/a	n/a	n/a	n/a	n/a	n/a
377.3446	0.5166	FIXCROSS	n/a	n/a	n/a	n/a	n/a	n/a	n/a	n/a
377.8612	0.6334	COLOR_NAME	34	Neutral	zielony	green	Neutral	Neutral	hit	n/a
378.4607	n/a	RESPONSE	n/a	n/a	n/a	n/a	n/a	n/a	n/a	green
378.4946	1.0167	ITI	n/a	n/a	n/a	n/a	n/a	n/a	n/a	n/a
379.5113	0.5167	FIXCROSS	n/a	n/a	n/a	n/a	n/a	n/a	n/a	n/a
380.0279	0.6834	COLOR_NAME	35	Incongruent	żółty	yellow	zielony	green	hit	n/a
380.6819	n/a	RESPONSE	n/a	n/a	n/a	n/a	n/a	n/a	n/a	yellow
380.7113	1.0167	ITI	n/a	n/a	n/a	n/a	n/a	n/a	n/a	n/a
381.728	0.5167	FIXCROSS	n/a	n/a	n/a	n/a	n/a	n/a	n/a	n/a
382.2446	1.0667	COLOR_NAME	36	Incongruent	zielony	green	niebieski	blue	hit	n/a
383.2867	n/a	RESPONSE	n/a	n/a	n/a	n/a	n/a	n/a	n/a	green
383.3113	1.0167	ITI	n/a	n/a	n/a	n/a	n/a	n/a	n/a	n/a
384.328	0.5167	FIXCROSS	n/a	n/a	n/a	n/a	n/a	n/a	n/a	n/a
384.8447	0.7167	COLOR_NAME	37	Neutral	zielony	green	Neutral	Neutral	hit	n/a
385.5398	n/a	RESPONSE	n/a	n/a	n/a	n/a	n/a	n/a	n/a	green
385.5613	1.0167	ITI	n/a	n/a	n/a	n/a	n/a	n/a	n/a	n/a
386.578	0.5167	FIXCROSS	n/a	n/a	n/a	n/a	n/a	n/a	n/a	n/a
387.0947	1.4167	COLOR_NAME	38	Incongruent	niebieski	blue	zielony	green	hit	n/a
388.4802	n/a	RESPONSE	n/a	n/a	n/a	n/a	n/a	n/a	n/a	blue
388.5113	1.0167	ITI	n/a	n/a	n/a	n/a	n/a	n/a	n/a	n/a
389.528	0.5167	FIXCROSS	n/a	n/a	n/a	n/a	n/a	n/a	n/a	n/a
390.0447	0.5667	COLOR_NAME	39	Neutral	niebieski	blue	Neutral	Neutral	hit	n/a
390.5897	n/a	RESPONSE	n/a	n/a	n/a	n/a	n/a	n/a	n/a	blue
390.6114	1.0167	ITI	n/a	n/a	n/a	n/a	n/a	n/a	n/a	n/a
391.628	0.5167	FIXCROSS	n/a	n/a	n/a	n/a	n/a	n/a	n/a	n/a
392.1447	0.7167	COLOR_NAME	40	Neutral	czerwony	red	Neutral	Neutral	hit	n/a
392.8429	n/a	RESPONSE	n/a	n/a	n/a	n/a	n/a	n/a	n/a	red
392.8614	1.0167	ITI	n/a	n/a	n/a	n/a	n/a	n/a	n/a	n/a
393.8781	0.5167	FIXCROSS	n/a	n/a	n/a	n/a	n/a	n/a	n/a	n/a
394.3947	0.7333	COLOR_NAME	41	Incongruent	czerwony	red	żółty	yellow	hit	n/a
395.0961	n/a	RESPONSE	n/a	n/a	n/a	n/a	n/a	n/a	n/a	red
395.1281	1.0167	ITI	n/a	n/a	n/a	n/a	n/a	n/a	n/a	n/a
396.1447	0.5167	FIXCROSS	n/a	n/a	n/a	n/a	n/a	n/a	n/a	n/a
396.6614	0.5167	COLOR_NAME	42	Incongruent	czerwony	red	żółty	yellow	hit	n/a
397.1576	n/a	RESPONSE	n/a	n/a	n/a	n/a	n/a	n/a	n/a	red
397.1781	1.0167	ITI	n/a	n/a	n/a	n/a	n/a	n/a	n/a	n/a
398.1947	0.5167	FIXCROSS	n/a	n/a	n/a	n/a	n/a	n/a	n/a	n/a
398.7114	0.7167	COLOR_NAME	43	Incongruent	niebieski	blue	żółty	yellow	hit	n/a
399.3947	n/a	RESPONSE	n/a	n/a	n/a	n/a	n/a	n/a	n/a	blue
399.4281	1.0167	ITI	n/a	n/a	n/a	n/a	n/a	n/a	n/a	n/a
400.4448	0.5167	FIXCROSS	n/a	n/a	n/a	n/a	n/a	n/a	n/a	n/a
400.9614	0.5167	COLOR_NAME	44	Neutral	czerwony	red	Neutral	Neutral	hit	n/a
401.4562	n/a	RESPONSE	n/a	n/a	n/a	n/a	n/a	n/a	n/a	red
401.4781	1.0167	ITI	n/a	n/a	n/a	n/a	n/a	n/a	n/a	n/a
402.4948	0.5167	FIXCROSS	n/a	n/a	n/a	n/a	n/a	n/a	n/a	n/a
403.0114	0.7333	COLOR_NAME	45	Neutral	niebieski	blue	Neutral	Neutral	hit	n/a
403.7255	n/a	RESPONSE	n/a	n/a	n/a	n/a	n/a	n/a	n/a	blue
403.7448	1.0167	ITI	n/a	n/a	n/a	n/a	n/a	n/a	n/a	n/a
404.7615	0.5167	FIXCROSS	n/a	n/a	n/a	n/a	n/a	n/a	n/a	n/a
405.2781	0.55	COLOR_NAME	46	Incongruent	niebieski	blue	żółty	yellow	hit	n/a
405.8028	n/a	RESPONSE	n/a	n/a	n/a	n/a	n/a	n/a	n/a	blue
405.8281	1.0167	ITI	n/a	n/a	n/a	n/a	n/a	n/a	n/a	n/a
406.8448	0.5167	FIXCROSS	n/a	n/a	n/a	n/a	n/a	n/a	n/a	n/a
407.3615	0.9833	COLOR_NAME	47	Neutral	zielony	green	Neutral	Neutral	hit	n/a
408.3117	n/a	RESPONSE	n/a	n/a	n/a	n/a	n/a	n/a	n/a	green
408.3448	1.0167	ITI	n/a	n/a	n/a	n/a	n/a	n/a	n/a	n/a
409.3615	0.5167	FIXCROSS	n/a	n/a	n/a	n/a	n/a	n/a	n/a	n/a
409.8782	0.5499	COLOR_NAME	48	Incongruent	żółty	yellow	niebieski	blue	hit	n/a
410.4052	n/a	RESPONSE	n/a	n/a	n/a	n/a	n/a	n/a	n/a	yellow
410.4281	1.0167	ITI	n/a	n/a	n/a	n/a	n/a	n/a	n/a	n/a
411.4449	0.5167	FIXCROSS	n/a	n/a	n/a	n/a	n/a	n/a	n/a	n/a
411.9615	0.65	COLOR_NAME	49	Neutral	żółty	yellow	Neutral	Neutral	hit	n/a
412.5785	n/a	RESPONSE	n/a	n/a	n/a	n/a	n/a	n/a	n/a	yellow
412.6115	1.0167	ITI	n/a	n/a	n/a	n/a	n/a	n/a	n/a	n/a
413.6282	0.5167	FIXCROSS	n/a	n/a	n/a	n/a	n/a	n/a	n/a	n/a
414.1449	0.7667	COLOR_NAME	50	Neutral	żółty	yellow	Neutral	Neutral	hit	n/a
414.8796	n/a	RESPONSE	n/a	n/a	n/a	n/a	n/a	n/a	n/a	yellow
414.9115	1.0167	ITI	n/a	n/a	n/a	n/a	n/a	n/a	n/a	n/a
415.9282	0.5167	FIXCROSS	n/a	n/a	n/a	n/a	n/a	n/a	n/a	n/a
416.4449	0.55	COLOR_NAME	51	Neutral	żółty	yellow	Neutral	Neutral	hit	n/a
416.9731	n/a	RESPONSE	n/a	n/a	n/a	n/a	n/a	n/a	n/a	yellow
416.9949	1.0167	ITI	n/a	n/a	n/a	n/a	n/a	n/a	n/a	n/a
418.0116	0.5167	FIXCROSS	n/a	n/a	n/a	n/a	n/a	n/a	n/a	n/a
418.5282	0.7	COLOR_NAME	52	Neutral	czerwony	red	Neutral	Neutral	hit	n/a
419.1943	n/a	RESPONSE	n/a	n/a	n/a	n/a	n/a	n/a	n/a	red
419.2282	1.0167	ITI	n/a	n/a	n/a	n/a	n/a	n/a	n/a	n/a
420.2449	0.5167	FIXCROSS	n/a	n/a	n/a	n/a	n/a	n/a	n/a	n/a
420.7616	0.7333	COLOR_NAME	53	Neutral	niebieski	blue	Neutral	Neutral	hit	n/a
421.4636	n/a	RESPONSE	n/a	n/a	n/a	n/a	n/a	n/a	n/a	blue
421.4949	1.0167	ITI	n/a	n/a	n/a	n/a	n/a	n/a	n/a	n/a
422.5116	0.5167	FIXCROSS	n/a	n/a	n/a	n/a	n/a	n/a	n/a	n/a
423.0283	0.65	COLOR_NAME	54	Incongruent	czerwony	red	niebieski	blue	hit	n/a
423.6528	n/a	RESPONSE	n/a	n/a	n/a	n/a	n/a	n/a	n/a	red
423.6783	1.0167	ITI	n/a	n/a	n/a	n/a	n/a	n/a	n/a	n/a
424.6949	0.5167	FIXCROSS	n/a	n/a	n/a	n/a	n/a	n/a	n/a	n/a
425.2116	0.8	COLOR_NAME	55	Neutral	niebieski	blue	Neutral	Neutral	hit	n/a
425.986	n/a	RESPONSE	n/a	n/a	n/a	n/a	n/a	n/a	n/a	blue
426.0116	1.0167	ITI	n/a	n/a	n/a	n/a	n/a	n/a	n/a	n/a
427.0283	0.5167	FIXCROSS	n/a	n/a	n/a	n/a	n/a	n/a	n/a	n/a
427.545	0.65	COLOR_NAME	56	Neutral	niebieski	blue	Neutral	Neutral	hit	n/a
428.1752	n/a	RESPONSE	n/a	n/a	n/a	n/a	n/a	n/a	n/a	blue
428.195	1.0167	ITI	n/a	n/a	n/a	n/a	n/a	n/a	n/a	n/a
429.2116	0.5167	FIXCROSS	n/a	n/a	n/a	n/a	n/a	n/a	n/a	n/a
429.7283	1.8667	COLOR_NAME	57	Neutral	zielony	green	Neutral	Neutral	hit	n/a
431.5632	n/a	RESPONSE	n/a	n/a	n/a	n/a	n/a	n/a	n/a	green
431.595	1.0167	ITI	n/a	n/a	n/a	n/a	n/a	n/a	n/a	n/a
432.6117	0.5167	FIXCROSS	n/a	n/a	n/a	n/a	n/a	n/a	n/a	n/a
433.1283	0.8167	COLOR_NAME	58	Incongruent	zielony	green	czerwony	red	hit	n/a
433.9122	n/a	RESPONSE	n/a	n/a	n/a	n/a	n/a	n/a	n/a	green
433.945	1.0167	ITI	n/a	n/a	n/a	n/a	n/a	n/a	n/a	n/a
434.9617	0.5167	FIXCROSS	n/a	n/a	n/a	n/a	n/a	n/a	n/a	n/a
435.4784	0.75	COLOR_NAME	59	Incongruent	żółty	yellow	czerwony	red	hit	n/a
436.1974	n/a	RESPONSE	n/a	n/a	n/a	n/a	n/a	n/a	n/a	yellow
436.2284	1.0167	ITI	n/a	n/a	n/a	n/a	n/a	n/a	n/a	n/a
437.2451	0.5167	FIXCROSS	n/a	n/a	n/a	n/a	n/a	n/a	n/a	n/a
437.7617	0.7333	COLOR_NAME	60	Incongruent	żółty	yellow	zielony	green	hit	n/a
438.4665	n/a	RESPONSE	n/a	n/a	n/a	n/a	n/a	n/a	n/a	yellow
438.495	1.0167	ITI	n/a	n/a	n/a	n/a	n/a	n/a	n/a	n/a
439.5117	0.5167	FIXCROSS	n/a	n/a	n/a	n/a	n/a	n/a	n/a	n/a
440.0284	0.65	COLOR_NAME	61	Neutral	czerwony	red	Neutral	Neutral	hit	n/a
440.6558	n/a	RESPONSE	n/a	n/a	n/a	n/a	n/a	n/a	n/a	red
440.6784	1.0167	ITI	n/a	n/a	n/a	n/a	n/a	n/a	n/a	n/a
441.6951	0.5167	FIXCROSS	n/a	n/a	n/a	n/a	n/a	n/a	n/a	n/a
442.2117	0.8	COLOR_NAME	62	Neutral	zielony	green	Neutral	Neutral	hit	n/a
442.9889	n/a	RESPONSE	n/a	n/a	n/a	n/a	n/a	n/a	n/a	green
443.0118	1.0167	ITI	n/a	n/a	n/a	n/a	n/a	n/a	n/a	n/a
444.0284	0.5167	FIXCROSS	n/a	n/a	n/a	n/a	n/a	n/a	n/a	n/a
444.5451	2.05	COLOR_NAME	63	Incongruent	czerwony	red	zielony	green	hit	n/a
446.5685	n/a	RESPONSE	n/a	n/a	n/a	n/a	n/a	n/a	n/a	red
446.5951	1.0167	ITI	n/a	n/a	n/a	n/a	n/a	n/a	n/a	n/a
447.6118	0.5167	FIXCROSS	n/a	n/a	n/a	n/a	n/a	n/a	n/a	n/a
448.1285	0.5833	COLOR_NAME	64	Neutral	czerwony	red	Neutral	Neutral	hit	n/a
448.694	n/a	RESPONSE	n/a	n/a	n/a	n/a	n/a	n/a	n/a	red
448.7118	1.0167	ITI	n/a	n/a	n/a	n/a	n/a	n/a	n/a	n/a
449.7285	0.5167	FIXCROSS	n/a	n/a	n/a	n/a	n/a	n/a	n/a	n/a
450.2451	0.7667	COLOR_NAME	65	Incongruent	żółty	yellow	czerwony	red	hit	n/a
450.9791	n/a	RESPONSE	n/a	n/a	n/a	n/a	n/a	n/a	n/a	yellow
451.0118	1.0167	ITI	n/a	n/a	n/a	n/a	n/a	n/a	n/a	n/a
452.0285	0.5167	FIXCROSS	n/a	n/a	n/a	n/a	n/a	n/a	n/a	n/a
452.5452	0.85	COLOR_NAME	66	Neutral	czerwony	red	Neutral	Neutral	hit	n/a
453.3761	n/a	RESPONSE	n/a	n/a	n/a	n/a	n/a	n/a	n/a	red
453.3952	1.0167	ITI	n/a	n/a	n/a	n/a	n/a	n/a	n/a	n/a
453.6158	n/a	RESPONSE	n/a	n/a	n/a	n/a	n/a	n/a	n/a	red
454.4118	0.5167	FIXCROSS	n/a	n/a	n/a	n/a	n/a	n/a	n/a	n/a
454.9285	1.0833	COLOR_NAME	67	Incongruent	niebieski	blue	czerwony	red	hit	n/a
455.9809	n/a	RESPONSE	n/a	n/a	n/a	n/a	n/a	n/a	n/a	blue
456.0118	1.0167	ITI	n/a	n/a	n/a	n/a	n/a	n/a	n/a	n/a
457.0285	0.5167	FIXCROSS	n/a	n/a	n/a	n/a	n/a	n/a	n/a	n/a
457.5452	0.6333	COLOR_NAME	68	Neutral	niebieski	blue	Neutral	Neutral	hit	n/a
458.1542	n/a	RESPONSE	n/a	n/a	n/a	n/a	n/a	n/a	n/a	blue
458.1785	1.0167	ITI	n/a	n/a	n/a	n/a	n/a	n/a	n/a	n/a
459.1952	0.5167	FIXCROSS	n/a	n/a	n/a	n/a	n/a	n/a	n/a	n/a
459.7119	1.2833	COLOR_NAME	69	Neutral	żółty	yellow	Neutral	Neutral	hit	n/a
460.9667	n/a	RESPONSE	n/a	n/a	n/a	n/a	n/a	n/a	n/a	yellow
460.9952	1.0167	ITI	n/a	n/a	n/a	n/a	n/a	n/a	n/a	n/a
462.0119	0.5167	FIXCROSS	n/a	n/a	n/a	n/a	n/a	n/a	n/a	n/a
462.5286	0.65	COLOR_NAME	70	Neutral	niebieski	blue	Neutral	Neutral	hit	n/a
463.156	n/a	RESPONSE	n/a	n/a	n/a	n/a	n/a	n/a	n/a	blue
463.1786	1.0167	ITI	n/a	n/a	n/a	n/a	n/a	n/a	n/a	n/a
464.1952	0.5167	FIXCROSS	n/a	n/a	n/a	n/a	n/a	n/a	n/a	n/a
464.7119	0.8167	COLOR_NAME	71	Incongruent	czerwony	red	niebieski	blue	hit	n/a
465.5051	n/a	RESPONSE	n/a	n/a	n/a	n/a	n/a	n/a	n/a	red
465.5286	1.0167	ITI	n/a	n/a	n/a	n/a	n/a	n/a	n/a	n/a
466.5453	0.5167	FIXCROSS	n/a	n/a	n/a	n/a	n/a	n/a	n/a	n/a
467.0619	0.6667	COLOR_NAME	72	Incongruent	niebieski	blue	czerwony	red	hit	n/a
467.7104	n/a	RESPONSE	n/a	n/a	n/a	n/a	n/a	n/a	n/a	blue
467.7286	1.0333	ITI	n/a	n/a	n/a	n/a	n/a	n/a	n/a	n/a
485.896	n/a	RESPONSE	n/a	n/a	n/a	n/a	n/a	n/a	n/a	n/a
