onset	duration	trial_type	trial_number	stroop_condition	stim_text(PL)	stim_text(eng)	stim_color(PL)	stim_color(eng)	response_type	response_color
0.0	n/a	RESPONSE	n/a	n/a	n/a	n/a	n/a	n/a	n/a	n/a
0.0612	1.0333	ITI	n/a	n/a	n/a	n/a	n/a	n/a	n/a	n/a
1.0945	0.5167	FIXCROSS	n/a	n/a	n/a	n/a	n/a	n/a	n/a	n/a
1.6112	1.7834	T_INK	1	Neutral	xxxxx	xxxxx	czerwony	red	hit	n/a
3.3594	n/a	RESPONSE	n/a	n/a	n/a	n/a	n/a	n/a	n/a	red
3.3945	0.5167	FEEDBACK	n/a	n/a	n/a	n/a	n/a	n/a	n/a	n/a
3.9112	1.0167	ITI	n/a	n/a	n/a	n/a	n/a	n/a	n/a	n/a
4.9279	0.5167	FIXCROSS	n/a	n/a	n/a	n/a	n/a	n/a	n/a	n/a
5.4446	1.0833	T_INK	2	Neutral	xxxxxxxxx	xxxxxxxxx	żółty	yellow	hit	n/a
6.4945	n/a	RESPONSE	n/a	n/a	n/a	n/a	n/a	n/a	n/a	yellow
6.5279	0.5167	FEEDBACK	n/a	n/a	n/a	n/a	n/a	n/a	n/a	n/a
7.0446	1.0167	ITI	n/a	n/a	n/a	n/a	n/a	n/a	n/a	n/a
8.0612	0.5167	FIXCROSS	n/a	n/a	n/a	n/a	n/a	n/a	n/a	n/a
8.5779	0.8333	T_INK	3	Neutral	xxxxxxxx	xxxxxxxx	zielony	green	hit	n/a
9.3898	n/a	RESPONSE	n/a	n/a	n/a	n/a	n/a	n/a	n/a	green
9.4113	0.5167	FEEDBACK	n/a	n/a	n/a	n/a	n/a	n/a	n/a	n/a
9.9279	1.0167	ITI	n/a	n/a	n/a	n/a	n/a	n/a	n/a	n/a
10.9446	0.5167	FIXCROSS	n/a	n/a	n/a	n/a	n/a	n/a	n/a	n/a
11.4613	1.4167	T_INK	4	Incongruent	czerwony	red	żółty	yellow	hit	n/a
12.8449	n/a	RESPONSE	n/a	n/a	n/a	n/a	n/a	n/a	n/a	yellow
12.8779	0.5167	FEEDBACK	n/a	n/a	n/a	n/a	n/a	n/a	n/a	n/a
13.3946	1.0167	ITI	n/a	n/a	n/a	n/a	n/a	n/a	n/a	n/a
14.4113	0.5167	FIXCROSS	n/a	n/a	n/a	n/a	n/a	n/a	n/a	n/a
14.928	1.0	T_INK	5	Neutral	xxxxxxxx	xxxxxxxx	niebieski	blue	hit	n/a
15.9003	n/a	RESPONSE	n/a	n/a	n/a	n/a	n/a	n/a	n/a	blue
15.928	0.5167	FEEDBACK	n/a	n/a	n/a	n/a	n/a	n/a	n/a	n/a
16.4446	1.0167	ITI	n/a	n/a	n/a	n/a	n/a	n/a	n/a	n/a
17.4613	0.5167	FIXCROSS	n/a	n/a	n/a	n/a	n/a	n/a	n/a	n/a
17.978	0.8	T_INK	6	Neutral	xxxxx	xxxxx	zielony	green	hit	n/a
18.7477	n/a	RESPONSE	n/a	n/a	n/a	n/a	n/a	n/a	n/a	green
18.778	0.5167	FEEDBACK	n/a	n/a	n/a	n/a	n/a	n/a	n/a	n/a
19.2947	1.0167	ITI	n/a	n/a	n/a	n/a	n/a	n/a	n/a	n/a
20.3113	0.5167	FIXCROSS	n/a	n/a	n/a	n/a	n/a	n/a	n/a	n/a
20.828	0.8	T_INK	7	Incongruent	czerwony	red	niebieski	blue	hit	n/a
21.5951	n/a	RESPONSE	n/a	n/a	n/a	n/a	n/a	n/a	n/a	blue
21.628	0.5167	FEEDBACK	n/a	n/a	n/a	n/a	n/a	n/a	n/a	n/a
22.1447	1.0167	ITI	n/a	n/a	n/a	n/a	n/a	n/a	n/a	n/a
23.1614	0.5167	FIXCROSS	n/a	n/a	n/a	n/a	n/a	n/a	n/a	n/a
23.678	0.6667	T_INK	8	Neutral	xxxxx	xxxxx	niebieski	blue	hit	n/a
24.3145	n/a	RESPONSE	n/a	n/a	n/a	n/a	n/a	n/a	n/a	blue
24.3447	0.5167	FEEDBACK	n/a	n/a	n/a	n/a	n/a	n/a	n/a	n/a
24.8614	1.0167	ITI	n/a	n/a	n/a	n/a	n/a	n/a	n/a	n/a
25.878	0.5167	FIXCROSS	n/a	n/a	n/a	n/a	n/a	n/a	n/a	n/a
26.3947	0.7167	T_INK	9	Neutral	xxxxxxxx	xxxxxxxx	żółty	yellow	hit	n/a
27.0819	n/a	RESPONSE	n/a	n/a	n/a	n/a	n/a	n/a	n/a	yellow
27.1114	0.5167	FEEDBACK	n/a	n/a	n/a	n/a	n/a	n/a	n/a	n/a
27.628	1.0167	ITI	n/a	n/a	n/a	n/a	n/a	n/a	n/a	n/a
28.6447	0.5167	FIXCROSS	n/a	n/a	n/a	n/a	n/a	n/a	n/a	n/a
29.1614	0.9167	T_INK	10	Neutral	xxxxxxxxx	xxxxxxxxx	czerwony	red	hit	n/a
30.0573	n/a	RESPONSE	n/a	n/a	n/a	n/a	n/a	n/a	n/a	red
30.0781	0.5167	FEEDBACK	n/a	n/a	n/a	n/a	n/a	n/a	n/a	n/a
30.5947	1.0167	ITI	n/a	n/a	n/a	n/a	n/a	n/a	n/a	n/a
31.6114	0.5167	FIXCROSS	n/a	n/a	n/a	n/a	n/a	n/a	n/a	n/a
32.1281	1.0	T_INK	11	Incongruent	czerwony	red	zielony	green	hit	n/a
33.0966	n/a	RESPONSE	n/a	n/a	n/a	n/a	n/a	n/a	n/a	green
33.1281	0.5167	FEEDBACK	n/a	n/a	n/a	n/a	n/a	n/a	n/a	n/a
33.6448	1.0167	ITI	n/a	n/a	n/a	n/a	n/a	n/a	n/a	n/a
34.6614	0.5167	FIXCROSS	n/a	n/a	n/a	n/a	n/a	n/a	n/a	n/a
35.1781	1.0333	T_INK	12	Incongruent	żółty	yellow	niebieski	blue	hit	n/a
36.184	n/a	RESPONSE	n/a	n/a	n/a	n/a	n/a	n/a	n/a	blue
36.2114	0.5167	FEEDBACK	n/a	n/a	n/a	n/a	n/a	n/a	n/a	n/a
36.7281	1.0333	ITI	n/a	n/a	n/a	n/a	n/a	n/a	n/a	n/a
40.919	n/a	RESPONSE	n/a	n/a	n/a	n/a	n/a	n/a	n/a	n/a
40.9781	1.0167	ITI	n/a	n/a	n/a	n/a	n/a	n/a	n/a	n/a
41.9948	0.5167	FIXCROSS	n/a	n/a	n/a	n/a	n/a	n/a	n/a	n/a
42.5115	1.5167	INK	1	Incongruent	żółty	yellow	czerwony	red	hit	n/a
44.0063	n/a	RESPONSE	n/a	n/a	n/a	n/a	n/a	n/a	n/a	red
44.0282	1.0167	ITI	n/a	n/a	n/a	n/a	n/a	n/a	n/a	n/a
45.0448	0.5167	FIXCROSS	n/a	n/a	n/a	n/a	n/a	n/a	n/a	n/a
45.5615	0.8667	INK	2	Neutral	xxxxxxx	xxxxxxx	żółty	yellow	hit	n/a
46.4058	n/a	RESPONSE	n/a	n/a	n/a	n/a	n/a	n/a	n/a	yellow
46.4282	1.0167	ITI	n/a	n/a	n/a	n/a	n/a	n/a	n/a	n/a
47.4449	0.5167	FIXCROSS	n/a	n/a	n/a	n/a	n/a	n/a	n/a	n/a
47.9615	1.0167	INK	3	Neutral	xxxxx	xxxxx	zielony	green	hit	n/a
48.9493	n/a	RESPONSE	n/a	n/a	n/a	n/a	n/a	n/a	n/a	green
48.9782	1.0167	ITI	n/a	n/a	n/a	n/a	n/a	n/a	n/a	n/a
49.9949	0.5167	FIXCROSS	n/a	n/a	n/a	n/a	n/a	n/a	n/a	n/a
50.5116	1.5167	INK	4	Incongruent	czerwony	red	zielony	green	hit	n/a
52.0047	n/a	RESPONSE	n/a	n/a	n/a	n/a	n/a	n/a	n/a	green
52.0282	1.0167	ITI	n/a	n/a	n/a	n/a	n/a	n/a	n/a	n/a
53.0449	0.5167	FIXCROSS	n/a	n/a	n/a	n/a	n/a	n/a	n/a	n/a
53.5616	0.75	INK	5	Incongruent	niebieski	blue	czerwony	red	hit	n/a
54.2922	n/a	RESPONSE	n/a	n/a	n/a	n/a	n/a	n/a	n/a	red
54.3116	1.0167	ITI	n/a	n/a	n/a	n/a	n/a	n/a	n/a	n/a
55.3282	0.5167	FIXCROSS	n/a	n/a	n/a	n/a	n/a	n/a	n/a	n/a
55.8449	0.6333	INK	6	Neutral	xxxxxxxx	xxxxxxxx	żółty	yellow	hit	n/a
56.4517	n/a	RESPONSE	n/a	n/a	n/a	n/a	n/a	n/a	n/a	yellow
56.4783	1.0167	ITI	n/a	n/a	n/a	n/a	n/a	n/a	n/a	n/a
57.4949	0.5167	FIXCROSS	n/a	n/a	n/a	n/a	n/a	n/a	n/a	n/a
58.0116	0.6833	INK	7	Incongruent	zielony	green	żółty	yellow	hit	n/a
58.6752	n/a	RESPONSE	n/a	n/a	n/a	n/a	n/a	n/a	n/a	yellow
58.6949	1.0167	ITI	n/a	n/a	n/a	n/a	n/a	n/a	n/a	n/a
59.7116	0.5167	FIXCROSS	n/a	n/a	n/a	n/a	n/a	n/a	n/a	n/a
60.2283	0.8333	INK	8	Incongruent	czerwony	red	zielony	green	hit	n/a
61.0427	n/a	RESPONSE	n/a	n/a	n/a	n/a	n/a	n/a	n/a	green
61.0616	1.0167	ITI	n/a	n/a	n/a	n/a	n/a	n/a	n/a	n/a
62.0783	0.5167	FIXCROSS	n/a	n/a	n/a	n/a	n/a	n/a	n/a	n/a
62.595	0.85	INK	9	Neutral	xxxxxxxx	xxxxxxxx	żółty	yellow	hit	n/a
63.4262	n/a	RESPONSE	n/a	n/a	n/a	n/a	n/a	n/a	n/a	yellow
63.445	1.0167	ITI	n/a	n/a	n/a	n/a	n/a	n/a	n/a	n/a
64.4617	0.5167	FIXCROSS	n/a	n/a	n/a	n/a	n/a	n/a	n/a	n/a
64.9783	1.15	INK	10	Incongruent	czerwony	red	niebieski	blue	hit	n/a
66.0977	n/a	RESPONSE	n/a	n/a	n/a	n/a	n/a	n/a	n/a	blue
66.1283	1.0167	ITI	n/a	n/a	n/a	n/a	n/a	n/a	n/a	n/a
67.145	0.5167	FIXCROSS	n/a	n/a	n/a	n/a	n/a	n/a	n/a	n/a
67.6617	0.8667	INK	11	Neutral	xxxxxxx	xxxxxxx	niebieski	blue	hit	n/a
68.4972	n/a	RESPONSE	n/a	n/a	n/a	n/a	n/a	n/a	n/a	blue
68.5283	1.0167	ITI	n/a	n/a	n/a	n/a	n/a	n/a	n/a	n/a
69.545	0.5167	FIXCROSS	n/a	n/a	n/a	n/a	n/a	n/a	n/a	n/a
70.0617	0.65	INK	12	Neutral	xxxxxxxxx	xxxxxxxxx	żółty	yellow	hit	n/a
70.6887	n/a	RESPONSE	n/a	n/a	n/a	n/a	n/a	n/a	n/a	yellow
70.7117	1.0167	ITI	n/a	n/a	n/a	n/a	n/a	n/a	n/a	n/a
71.7284	0.5167	FIXCROSS	n/a	n/a	n/a	n/a	n/a	n/a	n/a	n/a
72.245	1.0	INK	13	Neutral	xxxxxxxx	xxxxxxxx	zielony	green	hit	n/a
73.2162	n/a	RESPONSE	n/a	n/a	n/a	n/a	n/a	n/a	n/a	green
73.245	1.0167	ITI	n/a	n/a	n/a	n/a	n/a	n/a	n/a	n/a
74.2617	0.5167	FIXCROSS	n/a	n/a	n/a	n/a	n/a	n/a	n/a	n/a
74.7784	1.0667	INK	14	Incongruent	zielony	green	czerwony	red	hit	n/a
75.8236	n/a	RESPONSE	n/a	n/a	n/a	n/a	n/a	n/a	n/a	red
75.845	1.0167	ITI	n/a	n/a	n/a	n/a	n/a	n/a	n/a	n/a
76.8617	0.5167	FIXCROSS	n/a	n/a	n/a	n/a	n/a	n/a	n/a	n/a
77.3784	1.2333	INK	15	Neutral	xxxxxxxxx	xxxxxxxxx	żółty	yellow	hit	n/a
78.591	n/a	RESPONSE	n/a	n/a	n/a	n/a	n/a	n/a	n/a	yellow
78.6117	1.0167	ITI	n/a	n/a	n/a	n/a	n/a	n/a	n/a	n/a
79.6284	0.5167	FIXCROSS	n/a	n/a	n/a	n/a	n/a	n/a	n/a	n/a
80.1451	0.95	INK	16	Incongruent	żółty	yellow	zielony	green	hit	n/a
81.0705	n/a	RESPONSE	n/a	n/a	n/a	n/a	n/a	n/a	n/a	green
81.0951	1.0167	ITI	n/a	n/a	n/a	n/a	n/a	n/a	n/a	n/a
82.1118	0.5167	FIXCROSS	n/a	n/a	n/a	n/a	n/a	n/a	n/a	n/a
82.6284	0.75	INK	17	Neutral	xxxxxxxx	xxxxxxxx	zielony	green	hit	n/a
83.358	n/a	RESPONSE	n/a	n/a	n/a	n/a	n/a	n/a	n/a	green
83.3784	1.0167	ITI	n/a	n/a	n/a	n/a	n/a	n/a	n/a	n/a
84.3951	0.5167	FIXCROSS	n/a	n/a	n/a	n/a	n/a	n/a	n/a	n/a
84.9118	0.7333	INK	18	Neutral	xxxxxxx	xxxxxxx	żółty	yellow	hit	n/a
85.6135	n/a	RESPONSE	n/a	n/a	n/a	n/a	n/a	n/a	n/a	yellow
85.6451	1.0167	ITI	n/a	n/a	n/a	n/a	n/a	n/a	n/a	n/a
86.6618	0.5167	FIXCROSS	n/a	n/a	n/a	n/a	n/a	n/a	n/a	n/a
87.1785	0.9333	INK	19	Incongruent	niebieski	blue	zielony	green	hit	n/a
88.093	n/a	RESPONSE	n/a	n/a	n/a	n/a	n/a	n/a	n/a	green
88.1118	1.0167	ITI	n/a	n/a	n/a	n/a	n/a	n/a	n/a	n/a
89.1285	0.5167	FIXCROSS	n/a	n/a	n/a	n/a	n/a	n/a	n/a	n/a
89.6452	0.7	INK	20	Incongruent	niebieski	blue	czerwony	red	hit	n/a
90.3166	n/a	RESPONSE	n/a	n/a	n/a	n/a	n/a	n/a	n/a	red
90.3452	1.0167	ITI	n/a	n/a	n/a	n/a	n/a	n/a	n/a	n/a
91.3618	0.5167	FIXCROSS	n/a	n/a	n/a	n/a	n/a	n/a	n/a	n/a
91.8785	1.1	INK	21	Neutral	xxxxxxxx	xxxxxxxx	niebieski	blue	hit	n/a
92.956	n/a	RESPONSE	n/a	n/a	n/a	n/a	n/a	n/a	n/a	blue
92.9785	1.0167	ITI	n/a	n/a	n/a	n/a	n/a	n/a	n/a	n/a
93.9952	0.5167	FIXCROSS	n/a	n/a	n/a	n/a	n/a	n/a	n/a	n/a
94.5119	0.7	INK	22	Incongruent	czerwony	red	żółty	yellow	hit	n/a
95.1795	n/a	RESPONSE	n/a	n/a	n/a	n/a	n/a	n/a	n/a	yellow
95.2119	1.0167	ITI	n/a	n/a	n/a	n/a	n/a	n/a	n/a	n/a
96.2285	0.5167	FIXCROSS	n/a	n/a	n/a	n/a	n/a	n/a	n/a	n/a
96.7452	0.65	INK	23	Neutral	xxxxxxxxx	xxxxxxxxx	czerwony	red	hit	n/a
97.371	n/a	RESPONSE	n/a	n/a	n/a	n/a	n/a	n/a	n/a	red
97.3952	1.0167	ITI	n/a	n/a	n/a	n/a	n/a	n/a	n/a	n/a
98.4119	0.5167	FIXCROSS	n/a	n/a	n/a	n/a	n/a	n/a	n/a	n/a
98.9286	0.6167	INK	24	Incongruent	niebieski	blue	żółty	yellow	hit	n/a
99.5146	n/a	RESPONSE	n/a	n/a	n/a	n/a	n/a	n/a	n/a	yellow
99.5452	1.0167	ITI	n/a	n/a	n/a	n/a	n/a	n/a	n/a	n/a
100.5619	0.5167	FIXCROSS	n/a	n/a	n/a	n/a	n/a	n/a	n/a	n/a
101.0786	0.8167	INK	25	Incongruent	czerwony	red	niebieski	blue	hit	n/a
101.8661	n/a	RESPONSE	n/a	n/a	n/a	n/a	n/a	n/a	n/a	blue
101.8952	1.0167	ITI	n/a	n/a	n/a	n/a	n/a	n/a	n/a	n/a
102.9119	0.5167	FIXCROSS	n/a	n/a	n/a	n/a	n/a	n/a	n/a	n/a
103.4286	0.6667	INK	26	Neutral	xxxxxxxx	xxxxxxxx	niebieski	blue	hit	n/a
104.0736	n/a	RESPONSE	n/a	n/a	n/a	n/a	n/a	n/a	n/a	blue
104.0953	1.0167	ITI	n/a	n/a	n/a	n/a	n/a	n/a	n/a	n/a
105.1119	0.5167	FIXCROSS	n/a	n/a	n/a	n/a	n/a	n/a	n/a	n/a
105.6286	0.7	INK	27	Neutral	xxxxx	xxxxx	zielony	green	hit	n/a
106.2972	n/a	RESPONSE	n/a	n/a	n/a	n/a	n/a	n/a	n/a	green
106.3286	1.0167	ITI	n/a	n/a	n/a	n/a	n/a	n/a	n/a	n/a
107.3453	0.5167	FIXCROSS	n/a	n/a	n/a	n/a	n/a	n/a	n/a	n/a
107.862	0.7333	INK	28	Incongruent	zielony	green	żółty	yellow	hit	n/a
108.5687	n/a	RESPONSE	n/a	n/a	n/a	n/a	n/a	n/a	n/a	yellow
108.5953	1.0167	ITI	n/a	n/a	n/a	n/a	n/a	n/a	n/a	n/a
109.612	0.5167	FIXCROSS	n/a	n/a	n/a	n/a	n/a	n/a	n/a	n/a
110.1286	1.0	INK	29	Neutral	xxxxx	xxxxx	zielony	green	hit	n/a
111.0962	n/a	RESPONSE	n/a	n/a	n/a	n/a	n/a	n/a	n/a	green
111.1286	1.0167	ITI	n/a	n/a	n/a	n/a	n/a	n/a	n/a	n/a
112.1453	0.5167	FIXCROSS	n/a	n/a	n/a	n/a	n/a	n/a	n/a	n/a
112.662	0.8	INK	30	Incongruent	niebieski	blue	żółty	yellow	hit	n/a
113.4317	n/a	RESPONSE	n/a	n/a	n/a	n/a	n/a	n/a	n/a	yellow
113.462	1.0167	ITI	n/a	n/a	n/a	n/a	n/a	n/a	n/a	n/a
114.4787	0.5167	FIXCROSS	n/a	n/a	n/a	n/a	n/a	n/a	n/a	n/a
114.9953	0.7667	INK	31	Incongruent	czerwony	red	żółty	yellow	hit	n/a
115.7352	n/a	RESPONSE	n/a	n/a	n/a	n/a	n/a	n/a	n/a	yellow
115.762	1.0167	ITI	n/a	n/a	n/a	n/a	n/a	n/a	n/a	n/a
116.7787	0.5167	FIXCROSS	n/a	n/a	n/a	n/a	n/a	n/a	n/a	n/a
117.2954	0.6667	INK	32	Neutral	xxxxxxx	xxxxxxx	czerwony	red	hit	n/a
117.9427	n/a	RESPONSE	n/a	n/a	n/a	n/a	n/a	n/a	n/a	red
117.962	1.0167	ITI	n/a	n/a	n/a	n/a	n/a	n/a	n/a	n/a
118.9787	0.5167	FIXCROSS	n/a	n/a	n/a	n/a	n/a	n/a	n/a	n/a
119.4954	0.85	INK	33	Neutral	xxxxx	xxxxx	niebieski	blue	hit	n/a
120.3262	n/a	RESPONSE	n/a	n/a	n/a	n/a	n/a	n/a	n/a	blue
120.3454	1.0167	ITI	n/a	n/a	n/a	n/a	n/a	n/a	n/a	n/a
121.362	0.5167	FIXCROSS	n/a	n/a	n/a	n/a	n/a	n/a	n/a	n/a
121.8787	0.8167	INK	34	Neutral	xxxxxxx	xxxxxxx	niebieski	blue	hit	n/a
122.6617	n/a	RESPONSE	n/a	n/a	n/a	n/a	n/a	n/a	n/a	blue
122.6954	1.0167	ITI	n/a	n/a	n/a	n/a	n/a	n/a	n/a	n/a
123.7121	0.5167	FIXCROSS	n/a	n/a	n/a	n/a	n/a	n/a	n/a	n/a
124.2287	0.6833	INK	35	Incongruent	zielony	green	czerwony	red	hit	n/a
124.8852	n/a	RESPONSE	n/a	n/a	n/a	n/a	n/a	n/a	n/a	red
124.9121	1.0167	ITI	n/a	n/a	n/a	n/a	n/a	n/a	n/a	n/a
125.2692	n/a	RESPONSE	n/a	n/a	n/a	n/a	n/a	n/a	n/a	red
125.9287	0.5167	FIXCROSS	n/a	n/a	n/a	n/a	n/a	n/a	n/a	n/a
126.4454	0.65	INK	36	Neutral	xxxxxxx	xxxxxxx	czerwony	red	hit	n/a
127.0768	n/a	RESPONSE	n/a	n/a	n/a	n/a	n/a	n/a	n/a	red
127.0954	1.0167	ITI	n/a	n/a	n/a	n/a	n/a	n/a	n/a	n/a
128.1121	0.5167	FIXCROSS	n/a	n/a	n/a	n/a	n/a	n/a	n/a	n/a
128.6288	0.7833	INK	37	Neutral	xxxxxxxx	xxxxxxxx	żółty	yellow	hit	n/a
129.3803	n/a	RESPONSE	n/a	n/a	n/a	n/a	n/a	n/a	n/a	yellow
129.4121	1.0167	ITI	n/a	n/a	n/a	n/a	n/a	n/a	n/a	n/a
130.4288	0.5167	FIXCROSS	n/a	n/a	n/a	n/a	n/a	n/a	n/a	n/a
130.9454	0.8167	INK	38	Incongruent	zielony	green	czerwony	red	hit	n/a
131.7318	n/a	RESPONSE	n/a	n/a	n/a	n/a	n/a	n/a	n/a	red
131.7621	1.0167	ITI	n/a	n/a	n/a	n/a	n/a	n/a	n/a	n/a
132.7788	0.5167	FIXCROSS	n/a	n/a	n/a	n/a	n/a	n/a	n/a	n/a
133.2955	0.5833	INK	39	Neutral	xxxxxxx	xxxxxxx	czerwony	red	hit	n/a
133.8594	n/a	RESPONSE	n/a	n/a	n/a	n/a	n/a	n/a	n/a	red
133.8788	1.0167	ITI	n/a	n/a	n/a	n/a	n/a	n/a	n/a	n/a
134.8955	0.5167	FIXCROSS	n/a	n/a	n/a	n/a	n/a	n/a	n/a	n/a
135.4122	0.5167	INK	40	Neutral	xxxxx	xxxxx	czerwony	red	hit	n/a
135.9069	n/a	RESPONSE	n/a	n/a	n/a	n/a	n/a	n/a	n/a	red
135.9288	1.0167	ITI	n/a	n/a	n/a	n/a	n/a	n/a	n/a	n/a
136.9455	0.5167	FIXCROSS	n/a	n/a	n/a	n/a	n/a	n/a	n/a	n/a
137.4622	0.7167	INK	41	Neutral	xxxxxxx	xxxxxxx	żółty	yellow	hit	n/a
138.1464	n/a	RESPONSE	n/a	n/a	n/a	n/a	n/a	n/a	n/a	yellow
138.1788	1.0167	ITI	n/a	n/a	n/a	n/a	n/a	n/a	n/a	n/a
139.1955	0.5167	FIXCROSS	n/a	n/a	n/a	n/a	n/a	n/a	n/a	n/a
139.7122	0.8833	INK	42	Neutral	xxxxxxxxx	xxxxxxxxx	zielony	green	hit	n/a
140.562	n/a	RESPONSE	n/a	n/a	n/a	n/a	n/a	n/a	n/a	green
140.5955	1.0167	ITI	n/a	n/a	n/a	n/a	n/a	n/a	n/a	n/a
141.6122	0.5167	FIXCROSS	n/a	n/a	n/a	n/a	n/a	n/a	n/a	n/a
142.1289	0.7167	INK	43	Neutral	xxxxx	xxxxx	czerwony	red	hit	n/a
142.8175	n/a	RESPONSE	n/a	n/a	n/a	n/a	n/a	n/a	n/a	red
142.8455	1.0167	ITI	n/a	n/a	n/a	n/a	n/a	n/a	n/a	n/a
143.8622	0.5167	FIXCROSS	n/a	n/a	n/a	n/a	n/a	n/a	n/a	n/a
144.3789	0.5167	INK	44	Neutral	xxxxx	xxxxx	czerwony	red	hit	n/a
144.8651	n/a	RESPONSE	n/a	n/a	n/a	n/a	n/a	n/a	n/a	red
144.8955	1.0167	ITI	n/a	n/a	n/a	n/a	n/a	n/a	n/a	n/a
145.9122	0.5167	FIXCROSS	n/a	n/a	n/a	n/a	n/a	n/a	n/a	n/a
146.4289	0.75	INK	45	Incongruent	czerwony	red	żółty	yellow	hit	n/a
147.1526	n/a	RESPONSE	n/a	n/a	n/a	n/a	n/a	n/a	n/a	yellow
147.1789	1.0167	ITI	n/a	n/a	n/a	n/a	n/a	n/a	n/a	n/a
148.1956	0.5167	FIXCROSS	n/a	n/a	n/a	n/a	n/a	n/a	n/a	n/a
148.7122	0.95	INK	46	Incongruent	żółty	yellow	czerwony	red	hit	n/a
149.632	n/a	RESPONSE	n/a	n/a	n/a	n/a	n/a	n/a	n/a	red
149.6623	1.0167	ITI	n/a	n/a	n/a	n/a	n/a	n/a	n/a	n/a
150.6789	0.5167	FIXCROSS	n/a	n/a	n/a	n/a	n/a	n/a	n/a	n/a
151.1956	0.9	INK	47	Neutral	xxxxx	xxxxx	niebieski	blue	hit	n/a
152.0635	n/a	RESPONSE	n/a	n/a	n/a	n/a	n/a	n/a	n/a	blue
152.0956	1.0167	ITI	n/a	n/a	n/a	n/a	n/a	n/a	n/a	n/a
153.1123	0.5167	FIXCROSS	n/a	n/a	n/a	n/a	n/a	n/a	n/a	n/a
153.6289	0.7333	INK	48	Neutral	xxxxxxxxx	xxxxxxxxx	zielony	green	hit	n/a
154.3351	n/a	RESPONSE	n/a	n/a	n/a	n/a	n/a	n/a	n/a	green
154.3623	1.0167	ITI	n/a	n/a	n/a	n/a	n/a	n/a	n/a	n/a
155.3789	0.5167	FIXCROSS	n/a	n/a	n/a	n/a	n/a	n/a	n/a	n/a
155.8956	0.8333	INK	49	Incongruent	żółty	yellow	niebieski	blue	hit	n/a
156.7026	n/a	RESPONSE	n/a	n/a	n/a	n/a	n/a	n/a	n/a	blue
156.729	1.0167	ITI	n/a	n/a	n/a	n/a	n/a	n/a	n/a	n/a
157.7456	0.5167	FIXCROSS	n/a	n/a	n/a	n/a	n/a	n/a	n/a	n/a
158.2623	0.8667	INK	50	Incongruent	żółty	yellow	czerwony	red	hit	n/a
159.1021	n/a	RESPONSE	n/a	n/a	n/a	n/a	n/a	n/a	n/a	red
159.129	1.0167	ITI	n/a	n/a	n/a	n/a	n/a	n/a	n/a	n/a
160.1456	0.5167	FIXCROSS	n/a	n/a	n/a	n/a	n/a	n/a	n/a	n/a
160.6623	0.55	INK	51	Neutral	xxxxxxxxx	xxxxxxxxx	czerwony	red	hit	n/a
161.1816	n/a	RESPONSE	n/a	n/a	n/a	n/a	n/a	n/a	n/a	red
161.2123	1.0167	ITI	n/a	n/a	n/a	n/a	n/a	n/a	n/a	n/a
162.229	0.5167	FIXCROSS	n/a	n/a	n/a	n/a	n/a	n/a	n/a	n/a
162.7457	1.0833	INK	52	Neutral	xxxxxxxxx	xxxxxxxxx	zielony	green	hit	n/a
163.8051	n/a	RESPONSE	n/a	n/a	n/a	n/a	n/a	n/a	n/a	green
163.829	1.0167	ITI	n/a	n/a	n/a	n/a	n/a	n/a	n/a	n/a
164.8457	0.5167	FIXCROSS	n/a	n/a	n/a	n/a	n/a	n/a	n/a	n/a
165.3624	1.05	INK	53	Incongruent	czerwony	red	niebieski	blue	hit	n/a
166.3805	n/a	RESPONSE	n/a	n/a	n/a	n/a	n/a	n/a	n/a	blue
166.4124	1.0167	ITI	n/a	n/a	n/a	n/a	n/a	n/a	n/a	n/a
167.429	0.5167	FIXCROSS	n/a	n/a	n/a	n/a	n/a	n/a	n/a	n/a
167.9457	1.0167	INK	54	Incongruent	czerwony	red	zielony	green	hit	n/a
168.94	n/a	RESPONSE	n/a	n/a	n/a	n/a	n/a	n/a	n/a	green
168.9624	1.0167	ITI	n/a	n/a	n/a	n/a	n/a	n/a	n/a	n/a
169.979	0.5167	FIXCROSS	n/a	n/a	n/a	n/a	n/a	n/a	n/a	n/a
170.4957	1.0333	INK	55	Incongruent	żółty	yellow	zielony	green	hit	n/a
171.4995	n/a	RESPONSE	n/a	n/a	n/a	n/a	n/a	n/a	n/a	green
171.5291	1.0167	ITI	n/a	n/a	n/a	n/a	n/a	n/a	n/a	n/a
172.5457	0.5167	FIXCROSS	n/a	n/a	n/a	n/a	n/a	n/a	n/a	n/a
173.0624	0.8667	INK	56	Incongruent	niebieski	blue	żółty	yellow	hit	n/a
173.8989	n/a	RESPONSE	n/a	n/a	n/a	n/a	n/a	n/a	n/a	yellow
173.9291	1.0167	ITI	n/a	n/a	n/a	n/a	n/a	n/a	n/a	n/a
174.9457	0.5167	FIXCROSS	n/a	n/a	n/a	n/a	n/a	n/a	n/a	n/a
175.4624	0.65	INK	57	Neutral	xxxxxxxx	xxxxxxxx	zielony	green	hit	n/a
176.0905	n/a	RESPONSE	n/a	n/a	n/a	n/a	n/a	n/a	n/a	green
176.1124	1.0167	ITI	n/a	n/a	n/a	n/a	n/a	n/a	n/a	n/a
177.1291	0.5167	FIXCROSS	n/a	n/a	n/a	n/a	n/a	n/a	n/a	n/a
177.6458	0.9333	INK	58	Neutral	xxxxxxxxx	xxxxxxxxx	żółty	yellow	hit	n/a
178.554	n/a	RESPONSE	n/a	n/a	n/a	n/a	n/a	n/a	n/a	yellow
178.5791	1.0167	ITI	n/a	n/a	n/a	n/a	n/a	n/a	n/a	n/a
179.5958	0.5167	FIXCROSS	n/a	n/a	n/a	n/a	n/a	n/a	n/a	n/a
180.1125	0.9167	INK	59	Neutral	xxxxx	xxxxx	niebieski	blue	hit	n/a
181.0014	n/a	RESPONSE	n/a	n/a	n/a	n/a	n/a	n/a	n/a	blue
181.0291	1.0	ITI	n/a	n/a	n/a	n/a	n/a	n/a	n/a	n/a
182.0291	0.5167	FIXCROSS	n/a	n/a	n/a	n/a	n/a	n/a	n/a	n/a
182.5458	1.1667	INK	60	Incongruent	żółty	yellow	niebieski	blue	hit	n/a
183.6889	n/a	RESPONSE	n/a	n/a	n/a	n/a	n/a	n/a	n/a	blue
183.7125	1.0167	ITI	n/a	n/a	n/a	n/a	n/a	n/a	n/a	n/a
184.7292	0.5167	FIXCROSS	n/a	n/a	n/a	n/a	n/a	n/a	n/a	n/a
185.2458	0.6333	INK	61	Incongruent	zielony	green	niebieski	blue	hit	n/a
185.8484	n/a	RESPONSE	n/a	n/a	n/a	n/a	n/a	n/a	n/a	blue
185.8792	1.0167	ITI	n/a	n/a	n/a	n/a	n/a	n/a	n/a	n/a
186.8958	0.5167	FIXCROSS	n/a	n/a	n/a	n/a	n/a	n/a	n/a	n/a
187.4125	0.8833	INK	62	Incongruent	niebieski	blue	czerwony	red	hit	n/a
188.2639	n/a	RESPONSE	n/a	n/a	n/a	n/a	n/a	n/a	n/a	red
188.2959	1.0167	ITI	n/a	n/a	n/a	n/a	n/a	n/a	n/a	n/a
189.3125	0.5167	FIXCROSS	n/a	n/a	n/a	n/a	n/a	n/a	n/a	n/a
189.8292	0.6333	INK	63	Neutral	xxxxxxxxx	xxxxxxxxx	czerwony	red	hit	n/a
190.4395	n/a	RESPONSE	n/a	n/a	n/a	n/a	n/a	n/a	n/a	red
190.4625	1.0167	ITI	n/a	n/a	n/a	n/a	n/a	n/a	n/a	n/a
191.4792	0.5167	FIXCROSS	n/a	n/a	n/a	n/a	n/a	n/a	n/a	n/a
191.9959	0.9167	INK	64	Incongruent	zielony	green	żółty	yellow	hit	n/a
192.8869	n/a	RESPONSE	n/a	n/a	n/a	n/a	n/a	n/a	n/a	yellow
192.9125	1.0167	ITI	n/a	n/a	n/a	n/a	n/a	n/a	n/a	n/a
193.9292	0.5167	FIXCROSS	n/a	n/a	n/a	n/a	n/a	n/a	n/a	n/a
194.4459	1.05	INK	65	Incongruent	niebieski	blue	zielony	green	hit	n/a
195.4784	n/a	RESPONSE	n/a	n/a	n/a	n/a	n/a	n/a	n/a	green
195.4959	1.0167	ITI	n/a	n/a	n/a	n/a	n/a	n/a	n/a	n/a
196.5126	0.5167	FIXCROSS	n/a	n/a	n/a	n/a	n/a	n/a	n/a	n/a
197.0292	0.8667	INK	66	Neutral	xxxxxxx	xxxxxxx	niebieski	blue	hit	n/a
197.878	n/a	RESPONSE	n/a	n/a	n/a	n/a	n/a	n/a	n/a	blue
197.8959	1.0167	ITI	n/a	n/a	n/a	n/a	n/a	n/a	n/a	n/a
198.9126	0.5167	FIXCROSS	n/a	n/a	n/a	n/a	n/a	n/a	n/a	n/a
199.4293	0.6667	INK	67	Incongruent	zielony	green	niebieski	blue	hit	n/a
200.0694	n/a	RESPONSE	n/a	n/a	n/a	n/a	n/a	n/a	n/a	blue
200.0959	1.0167	ITI	n/a	n/a	n/a	n/a	n/a	n/a	n/a	n/a
201.1126	0.5167	FIXCROSS	n/a	n/a	n/a	n/a	n/a	n/a	n/a	n/a
201.6293	0.9667	INK	68	Incongruent	żółty	yellow	zielony	green	hit	n/a
202.5649	n/a	RESPONSE	n/a	n/a	n/a	n/a	n/a	n/a	n/a	green
202.5959	1.0167	ITI	n/a	n/a	n/a	n/a	n/a	n/a	n/a	n/a
203.6126	0.5167	FIXCROSS	n/a	n/a	n/a	n/a	n/a	n/a	n/a	n/a
204.1293	0.7667	INK	69	Incongruent	zielony	green	niebieski	blue	hit	n/a
204.8684	n/a	RESPONSE	n/a	n/a	n/a	n/a	n/a	n/a	n/a	blue
204.896	1.0167	ITI	n/a	n/a	n/a	n/a	n/a	n/a	n/a	n/a
205.9126	0.5167	FIXCROSS	n/a	n/a	n/a	n/a	n/a	n/a	n/a	n/a
206.4293	0.6833	INK	70	Incongruent	niebieski	blue	zielony	green	hit	n/a
207.092	n/a	RESPONSE	n/a	n/a	n/a	n/a	n/a	n/a	n/a	green
207.1126	1.0167	ITI	n/a	n/a	n/a	n/a	n/a	n/a	n/a	n/a
208.1293	0.5167	FIXCROSS	n/a	n/a	n/a	n/a	n/a	n/a	n/a	n/a
208.646	0.75	INK	71	Neutral	xxxxxxxx	xxxxxxxx	niebieski	blue	hit	n/a
209.3635	n/a	RESPONSE	n/a	n/a	n/a	n/a	n/a	n/a	n/a	blue
209.396	1.0167	ITI	n/a	n/a	n/a	n/a	n/a	n/a	n/a	n/a
210.4127	0.5167	FIXCROSS	n/a	n/a	n/a	n/a	n/a	n/a	n/a	n/a
210.9293	0.55	INK	72	Incongruent	żółty	yellow	niebieski	blue	hit	n/a
211.4591	n/a	RESPONSE	n/a	n/a	n/a	n/a	n/a	n/a	n/a	blue
211.4793	1.0833	ITI	n/a	n/a	n/a	n/a	n/a	n/a	n/a	n/a
256.1057	n/a	RESPONSE	n/a	n/a	n/a	n/a	n/a	n/a	n/a	n/a
256.163	1.0167	ITI	n/a	n/a	n/a	n/a	n/a	n/a	n/a	n/a
257.1796	0.5167	FIXCROSS	n/a	n/a	n/a	n/a	n/a	n/a	n/a	n/a
257.6963	1.4333	T_COLOR_NAME	1	Neutral	niebieski	blue	Neutral	Neutral	hit	n/a
259.0971	n/a	RESPONSE	n/a	n/a	n/a	n/a	n/a	n/a	n/a	blue
259.1297	0.5167	FEEDBACK	n/a	n/a	n/a	n/a	n/a	n/a	n/a	n/a
259.6463	1.0167	ITI	n/a	n/a	n/a	n/a	n/a	n/a	n/a	n/a
260.663	0.5167	FIXCROSS	n/a	n/a	n/a	n/a	n/a	n/a	n/a	n/a
261.1797	2.5833	T_COLOR_NAME	2	Incongruent	czerwony	red	niebieski	blue	hit	n/a
263.7361	n/a	RESPONSE	n/a	n/a	n/a	n/a	n/a	n/a	n/a	red
263.763	0.5167	FEEDBACK	n/a	n/a	n/a	n/a	n/a	n/a	n/a	n/a
264.2797	1.0167	ITI	n/a	n/a	n/a	n/a	n/a	n/a	n/a	n/a
265.2964	0.5167	FIXCROSS	n/a	n/a	n/a	n/a	n/a	n/a	n/a	n/a
265.8131	1.2667	T_COLOR_NAME	3	Neutral	żółty	yellow	Neutral	Neutral	hit	n/a
267.0474	n/a	RESPONSE	n/a	n/a	n/a	n/a	n/a	n/a	n/a	yellow
267.0797	0.5167	FEEDBACK	n/a	n/a	n/a	n/a	n/a	n/a	n/a	n/a
267.5964	1.0167	ITI	n/a	n/a	n/a	n/a	n/a	n/a	n/a	n/a
268.6131	0.5167	FIXCROSS	n/a	n/a	n/a	n/a	n/a	n/a	n/a	n/a
269.1297	0.85	T_COLOR_NAME	4	Neutral	czerwony	red	Neutral	Neutral	hit	n/a
269.9588	n/a	RESPONSE	n/a	n/a	n/a	n/a	n/a	n/a	n/a	red
269.9797	0.5167	FEEDBACK	n/a	n/a	n/a	n/a	n/a	n/a	n/a	n/a
270.4964	1.0167	ITI	n/a	n/a	n/a	n/a	n/a	n/a	n/a	n/a
271.5131	0.5167	FIXCROSS	n/a	n/a	n/a	n/a	n/a	n/a	n/a	n/a
272.0298	0.9333	T_COLOR_NAME	5	Neutral	żółty	yellow	Neutral	Neutral	hit	n/a
272.9341	n/a	RESPONSE	n/a	n/a	n/a	n/a	n/a	n/a	n/a	yellow
272.9631	0.5167	FEEDBACK	n/a	n/a	n/a	n/a	n/a	n/a	n/a	n/a
273.4798	1.0167	ITI	n/a	n/a	n/a	n/a	n/a	n/a	n/a	n/a
274.4964	0.5167	FIXCROSS	n/a	n/a	n/a	n/a	n/a	n/a	n/a	n/a
275.0131	1.3333	T_COLOR_NAME	6	Incongruent	czerwony	red	zielony	green	hit	n/a
276.3254	n/a	RESPONSE	n/a	n/a	n/a	n/a	n/a	n/a	n/a	red
276.3465	0.5167	FEEDBACK	n/a	n/a	n/a	n/a	n/a	n/a	n/a	n/a
276.8631	1.0167	ITI	n/a	n/a	n/a	n/a	n/a	n/a	n/a	n/a
277.8798	0.5167	FIXCROSS	n/a	n/a	n/a	n/a	n/a	n/a	n/a	n/a
278.3965	0.9167	T_COLOR_NAME	7	Neutral	żółty	yellow	Neutral	Neutral	hit	n/a
279.2848	n/a	RESPONSE	n/a	n/a	n/a	n/a	n/a	n/a	n/a	yellow
279.3131	0.5167	FEEDBACK	n/a	n/a	n/a	n/a	n/a	n/a	n/a	n/a
279.8298	1.0167	ITI	n/a	n/a	n/a	n/a	n/a	n/a	n/a	n/a
280.8465	0.5167	FIXCROSS	n/a	n/a	n/a	n/a	n/a	n/a	n/a	n/a
281.3632	0.95	T_COLOR_NAME	8	Neutral	niebieski	blue	Neutral	Neutral	hit	n/a
282.2922	n/a	RESPONSE	n/a	n/a	n/a	n/a	n/a	n/a	n/a	blue
282.3132	0.5167	FEEDBACK	n/a	n/a	n/a	n/a	n/a	n/a	n/a	n/a
282.8298	1.0167	ITI	n/a	n/a	n/a	n/a	n/a	n/a	n/a	n/a
283.8465	0.5167	FIXCROSS	n/a	n/a	n/a	n/a	n/a	n/a	n/a	n/a
284.3632	0.9667	T_COLOR_NAME	9	Incongruent	żółty	yellow	niebieski	blue	hit	n/a
285.2995	n/a	RESPONSE	n/a	n/a	n/a	n/a	n/a	n/a	n/a	yellow
285.3299	0.5167	FEEDBACK	n/a	n/a	n/a	n/a	n/a	n/a	n/a	n/a
285.8465	1.0167	ITI	n/a	n/a	n/a	n/a	n/a	n/a	n/a	n/a
286.8632	0.5167	FIXCROSS	n/a	n/a	n/a	n/a	n/a	n/a	n/a	n/a
287.3799	1.3833	T_COLOR_NAME	10	Incongruent	czerwony	red	żółty	yellow	hit	n/a
288.7388	n/a	RESPONSE	n/a	n/a	n/a	n/a	n/a	n/a	n/a	red
288.7632	0.5167	FEEDBACK	n/a	n/a	n/a	n/a	n/a	n/a	n/a	n/a
289.2799	1.0167	ITI	n/a	n/a	n/a	n/a	n/a	n/a	n/a	n/a
290.2965	0.5167	FIXCROSS	n/a	n/a	n/a	n/a	n/a	n/a	n/a	n/a
290.8132	1.1333	T_COLOR_NAME	11	Neutral	czerwony	red	Neutral	Neutral	hit	n/a
291.9221	n/a	RESPONSE	n/a	n/a	n/a	n/a	n/a	n/a	n/a	red
291.9466	0.5167	FEEDBACK	n/a	n/a	n/a	n/a	n/a	n/a	n/a	n/a
292.4632	1.0167	ITI	n/a	n/a	n/a	n/a	n/a	n/a	n/a	n/a
293.4799	0.5167	FIXCROSS	n/a	n/a	n/a	n/a	n/a	n/a	n/a	n/a
293.9966	1.0667	T_COLOR_NAME	12	Neutral	czerwony	red	Neutral	Neutral	hit	n/a
295.0415	n/a	RESPONSE	n/a	n/a	n/a	n/a	n/a	n/a	n/a	red
295.0632	0.5167	FEEDBACK	n/a	n/a	n/a	n/a	n/a	n/a	n/a	n/a
295.5799	1.0333	ITI	n/a	n/a	n/a	n/a	n/a	n/a	n/a	n/a
299.2646	n/a	RESPONSE	n/a	n/a	n/a	n/a	n/a	n/a	n/a	n/a
299.3299	1.0167	ITI	n/a	n/a	n/a	n/a	n/a	n/a	n/a	n/a
300.3466	0.5167	FIXCROSS	n/a	n/a	n/a	n/a	n/a	n/a	n/a	n/a
300.8633	1.5167	COLOR_NAME	1	Incongruent	niebieski	blue	żółty	yellow	hit	n/a
302.3519	n/a	RESPONSE	n/a	n/a	n/a	n/a	n/a	n/a	n/a	blue
302.38	1.0167	ITI	n/a	n/a	n/a	n/a	n/a	n/a	n/a	n/a
303.3966	0.5167	FIXCROSS	n/a	n/a	n/a	n/a	n/a	n/a	n/a	n/a
303.9133	0.9667	COLOR_NAME	2	Neutral	czerwony	red	Neutral	Neutral	hit	n/a
304.8474	n/a	RESPONSE	n/a	n/a	n/a	n/a	n/a	n/a	n/a	red
304.88	1.0167	ITI	n/a	n/a	n/a	n/a	n/a	n/a	n/a	n/a
305.8966	0.5167	FIXCROSS	n/a	n/a	n/a	n/a	n/a	n/a	n/a	n/a
306.4133	1.0167	COLOR_NAME	3	Incongruent	zielony	green	niebieski	blue	hit	n/a
307.4069	n/a	RESPONSE	n/a	n/a	n/a	n/a	n/a	n/a	n/a	green
307.43	1.0167	ITI	n/a	n/a	n/a	n/a	n/a	n/a	n/a	n/a
308.4467	0.5167	FIXCROSS	n/a	n/a	n/a	n/a	n/a	n/a	n/a	n/a
308.9633	0.8167	COLOR_NAME	4	Incongruent	czerwony	red	niebieski	blue	hit	n/a
309.7584	n/a	RESPONSE	n/a	n/a	n/a	n/a	n/a	n/a	n/a	red
309.78	1.0167	ITI	n/a	n/a	n/a	n/a	n/a	n/a	n/a	n/a
310.7967	0.5167	FIXCROSS	n/a	n/a	n/a	n/a	n/a	n/a	n/a	n/a
311.3134	0.9167	COLOR_NAME	5	Incongruent	zielony	green	żółty	yellow	hit	n/a
312.2058	n/a	RESPONSE	n/a	n/a	n/a	n/a	n/a	n/a	n/a	green
312.23	1.0167	ITI	n/a	n/a	n/a	n/a	n/a	n/a	n/a	n/a
313.2467	0.5167	FIXCROSS	n/a	n/a	n/a	n/a	n/a	n/a	n/a	n/a
313.7634	0.7833	COLOR_NAME	6	Neutral	czerwony	red	Neutral	Neutral	hit	n/a
314.5254	n/a	RESPONSE	n/a	n/a	n/a	n/a	n/a	n/a	n/a	red
314.5467	1.0167	ITI	n/a	n/a	n/a	n/a	n/a	n/a	n/a	n/a
315.5634	0.5167	FIXCROSS	n/a	n/a	n/a	n/a	n/a	n/a	n/a	n/a
316.0801	0.8667	COLOR_NAME	7	Neutral	czerwony	red	Neutral	Neutral	hit	n/a
316.9249	n/a	RESPONSE	n/a	n/a	n/a	n/a	n/a	n/a	n/a	red
316.9467	1.0167	ITI	n/a	n/a	n/a	n/a	n/a	n/a	n/a	n/a
317.9634	0.5167	FIXCROSS	n/a	n/a	n/a	n/a	n/a	n/a	n/a	n/a
318.4801	0.8333	COLOR_NAME	8	Neutral	żółty	yellow	Neutral	Neutral	hit	n/a
319.2924	n/a	RESPONSE	n/a	n/a	n/a	n/a	n/a	n/a	n/a	yellow
319.3134	1.0167	ITI	n/a	n/a	n/a	n/a	n/a	n/a	n/a	n/a
320.3301	0.5167	FIXCROSS	n/a	n/a	n/a	n/a	n/a	n/a	n/a	n/a
320.8468	0.9667	COLOR_NAME	9	Neutral	zielony	green	Neutral	Neutral	hit	n/a
321.7878	n/a	RESPONSE	n/a	n/a	n/a	n/a	n/a	n/a	n/a	green
321.8134	1.0167	ITI	n/a	n/a	n/a	n/a	n/a	n/a	n/a	n/a
322.8301	0.5167	FIXCROSS	n/a	n/a	n/a	n/a	n/a	n/a	n/a	n/a
323.3468	0.8	COLOR_NAME	10	Neutral	niebieski	blue	Neutral	Neutral	hit	n/a
324.1234	n/a	RESPONSE	n/a	n/a	n/a	n/a	n/a	n/a	n/a	blue
324.1468	1.0167	ITI	n/a	n/a	n/a	n/a	n/a	n/a	n/a	n/a
325.1635	0.5167	FIXCROSS	n/a	n/a	n/a	n/a	n/a	n/a	n/a	n/a
325.6801	0.6333	COLOR_NAME	11	Incongruent	czerwony	red	żółty	yellow	hit	n/a
326.2829	n/a	RESPONSE	n/a	n/a	n/a	n/a	n/a	n/a	n/a	red
326.3135	1.0167	ITI	n/a	n/a	n/a	n/a	n/a	n/a	n/a	n/a
327.3301	0.5167	FIXCROSS	n/a	n/a	n/a	n/a	n/a	n/a	n/a	n/a
327.8468	1.0667	COLOR_NAME	12	Incongruent	niebieski	blue	zielony	green	hit	n/a
328.8903	n/a	RESPONSE	n/a	n/a	n/a	n/a	n/a	n/a	n/a	blue
328.9135	1.0167	ITI	n/a	n/a	n/a	n/a	n/a	n/a	n/a	n/a
329.9301	0.5167	FIXCROSS	n/a	n/a	n/a	n/a	n/a	n/a	n/a	n/a
330.4468	1.5167	COLOR_NAME	13	Incongruent	zielony	green	czerwony	red	hit	n/a
331.9297	n/a	RESPONSE	n/a	n/a	n/a	n/a	n/a	n/a	n/a	green
331.9635	1.0167	ITI	n/a	n/a	n/a	n/a	n/a	n/a	n/a	n/a
332.9802	0.5167	FIXCROSS	n/a	n/a	n/a	n/a	n/a	n/a	n/a	n/a
333.4968	1.1333	COLOR_NAME	14	Incongruent	czerwony	red	zielony	green	hit	n/a
334.6012	n/a	RESPONSE	n/a	n/a	n/a	n/a	n/a	n/a	n/a	red
334.6302	1.0167	ITI	n/a	n/a	n/a	n/a	n/a	n/a	n/a	n/a
335.6469	0.5167	FIXCROSS	n/a	n/a	n/a	n/a	n/a	n/a	n/a	n/a
336.1635	1.0333	COLOR_NAME	15	Neutral	zielony	green	Neutral	Neutral	hit	n/a
337.1766	n/a	RESPONSE	n/a	n/a	n/a	n/a	n/a	n/a	n/a	green
337.1969	1.0167	ITI	n/a	n/a	n/a	n/a	n/a	n/a	n/a	n/a
338.2135	0.5167	FIXCROSS	n/a	n/a	n/a	n/a	n/a	n/a	n/a	n/a
338.7302	0.85	COLOR_NAME	16	Neutral	niebieski	blue	Neutral	Neutral	hit	n/a
339.5601	n/a	RESPONSE	n/a	n/a	n/a	n/a	n/a	n/a	n/a	blue
339.5802	1.0167	ITI	n/a	n/a	n/a	n/a	n/a	n/a	n/a	n/a
340.5969	0.5167	FIXCROSS	n/a	n/a	n/a	n/a	n/a	n/a	n/a	n/a
341.1136	0.95	COLOR_NAME	17	Incongruent	żółty	yellow	czerwony	red	hit	n/a
342.0396	n/a	RESPONSE	n/a	n/a	n/a	n/a	n/a	n/a	n/a	yellow
342.0636	1.0167	ITI	n/a	n/a	n/a	n/a	n/a	n/a	n/a	n/a
343.0802	0.5167	FIXCROSS	n/a	n/a	n/a	n/a	n/a	n/a	n/a	n/a
343.5969	0.95	COLOR_NAME	18	Incongruent	zielony	green	czerwony	red	hit	n/a
344.5191	n/a	RESPONSE	n/a	n/a	n/a	n/a	n/a	n/a	n/a	green
344.5469	1.0167	ITI	n/a	n/a	n/a	n/a	n/a	n/a	n/a	n/a
345.5636	0.5167	FIXCROSS	n/a	n/a	n/a	n/a	n/a	n/a	n/a	n/a
346.0803	0.8167	COLOR_NAME	19	Neutral	niebieski	blue	Neutral	Neutral	hit	n/a
346.8706	n/a	RESPONSE	n/a	n/a	n/a	n/a	n/a	n/a	n/a	blue
346.8969	1.0167	ITI	n/a	n/a	n/a	n/a	n/a	n/a	n/a	n/a
347.9136	0.5167	FIXCROSS	n/a	n/a	n/a	n/a	n/a	n/a	n/a	n/a
348.4303	0.9833	COLOR_NAME	20	Neutral	zielony	green	Neutral	Neutral	hit	n/a
349.3821	n/a	RESPONSE	n/a	n/a	n/a	n/a	n/a	n/a	n/a	green
349.4136	1.0167	ITI	n/a	n/a	n/a	n/a	n/a	n/a	n/a	n/a
350.4303	0.5167	FIXCROSS	n/a	n/a	n/a	n/a	n/a	n/a	n/a	n/a
350.947	1.15	COLOR_NAME	21	Neutral	żółty	yellow	Neutral	Neutral	hit	n/a
352.0695	n/a	RESPONSE	n/a	n/a	n/a	n/a	n/a	n/a	n/a	yellow
352.097	1.0167	ITI	n/a	n/a	n/a	n/a	n/a	n/a	n/a	n/a
353.1136	0.5167	FIXCROSS	n/a	n/a	n/a	n/a	n/a	n/a	n/a	n/a
353.6303	1.5833	COLOR_NAME	22	Incongruent	zielony	green	niebieski	blue	hit	n/a
355.1888	n/a	RESPONSE	n/a	n/a	n/a	n/a	n/a	n/a	n/a	green
355.2137	1.0167	ITI	n/a	n/a	n/a	n/a	n/a	n/a	n/a	n/a
356.2303	0.5167	FIXCROSS	n/a	n/a	n/a	n/a	n/a	n/a	n/a	n/a
356.747	1.1834	COLOR_NAME	23	Neutral	czerwony	red	Neutral	Neutral	hit	n/a
357.9082	n/a	RESPONSE	n/a	n/a	n/a	n/a	n/a	n/a	n/a	red
357.9303	1.0167	ITI	n/a	n/a	n/a	n/a	n/a	n/a	n/a	n/a
358.947	0.5167	FIXCROSS	n/a	n/a	n/a	n/a	n/a	n/a	n/a	n/a
359.4637	1.65	COLOR_NAME	24	Incongruent	żółty	yellow	niebieski	blue	hit	n/a
361.0915	n/a	RESPONSE	n/a	n/a	n/a	n/a	n/a	n/a	n/a	yellow
361.1137	1.0167	ITI	n/a	n/a	n/a	n/a	n/a	n/a	n/a	n/a
362.1304	0.5167	FIXCROSS	n/a	n/a	n/a	n/a	n/a	n/a	n/a	n/a
362.647	1.0834	COLOR_NAME	25	Incongruent	czerwony	red	żółty	yellow	hit	n/a
363.699	n/a	RESPONSE	n/a	n/a	n/a	n/a	n/a	n/a	n/a	red
363.7304	1.0167	ITI	n/a	n/a	n/a	n/a	n/a	n/a	n/a	n/a
364.7471	0.5167	FIXCROSS	n/a	n/a	n/a	n/a	n/a	n/a	n/a	n/a
365.2637	1.1	COLOR_NAME	26	Incongruent	czerwony	red	niebieski	blue	hit	n/a
366.3385	n/a	RESPONSE	n/a	n/a	n/a	n/a	n/a	n/a	n/a	red
366.3637	1.0167	ITI	n/a	n/a	n/a	n/a	n/a	n/a	n/a	n/a
367.3804	0.5167	FIXCROSS	n/a	n/a	n/a	n/a	n/a	n/a	n/a	n/a
367.8971	1.0	COLOR_NAME	27	Neutral	niebieski	blue	Neutral	Neutral	hit	n/a
368.8659	n/a	RESPONSE	n/a	n/a	n/a	n/a	n/a	n/a	n/a	blue
368.8971	1.0167	ITI	n/a	n/a	n/a	n/a	n/a	n/a	n/a	n/a
369.9138	0.5167	FIXCROSS	n/a	n/a	n/a	n/a	n/a	n/a	n/a	n/a
370.4304	0.8833	COLOR_NAME	28	Neutral	żółty	yellow	Neutral	Neutral	hit	n/a
371.2814	n/a	RESPONSE	n/a	n/a	n/a	n/a	n/a	n/a	n/a	yellow
371.3138	1.0167	ITI	n/a	n/a	n/a	n/a	n/a	n/a	n/a	n/a
372.3304	0.5167	FIXCROSS	n/a	n/a	n/a	n/a	n/a	n/a	n/a	n/a
372.8471	0.8	COLOR_NAME	29	Neutral	zielony	green	Neutral	Neutral	hit	n/a
373.6169	n/a	RESPONSE	n/a	n/a	n/a	n/a	n/a	n/a	n/a	green
373.6471	1.0167	ITI	n/a	n/a	n/a	n/a	n/a	n/a	n/a	n/a
374.6638	0.5167	FIXCROSS	n/a	n/a	n/a	n/a	n/a	n/a	n/a	n/a
375.1805	0.7	COLOR_NAME	30	Neutral	zielony	green	Neutral	Neutral	hit	n/a
375.8564	n/a	RESPONSE	n/a	n/a	n/a	n/a	n/a	n/a	n/a	green
375.8805	1.0167	ITI	n/a	n/a	n/a	n/a	n/a	n/a	n/a	n/a
376.8971	0.5167	FIXCROSS	n/a	n/a	n/a	n/a	n/a	n/a	n/a	n/a
377.4138	0.7833	COLOR_NAME	31	Neutral	żółty	yellow	Neutral	Neutral	hit	n/a
378.176	n/a	RESPONSE	n/a	n/a	n/a	n/a	n/a	n/a	n/a	yellow
378.1971	1.0167	ITI	n/a	n/a	n/a	n/a	n/a	n/a	n/a	n/a
379.2138	0.5167	FIXCROSS	n/a	n/a	n/a	n/a	n/a	n/a	n/a	n/a
379.7305	1.7167	COLOR_NAME	32	Incongruent	niebieski	blue	żółty	yellow	hit	n/a
381.4233	n/a	RESPONSE	n/a	n/a	n/a	n/a	n/a	n/a	n/a	blue
381.4472	1.0167	ITI	n/a	n/a	n/a	n/a	n/a	n/a	n/a	n/a
382.4638	0.5167	FIXCROSS	n/a	n/a	n/a	n/a	n/a	n/a	n/a	n/a
382.9805	1.5667	COLOR_NAME	33	Neutral	zielony	green	Neutral	Neutral	hit	n/a
384.5266	n/a	RESPONSE	n/a	n/a	n/a	n/a	n/a	n/a	n/a	green
384.5472	1.0167	ITI	n/a	n/a	n/a	n/a	n/a	n/a	n/a	n/a
385.5639	0.5167	FIXCROSS	n/a	n/a	n/a	n/a	n/a	n/a	n/a	n/a
386.0805	1.35	COLOR_NAME	34	Incongruent	niebieski	blue	czerwony	red	hit	n/a
387.406	n/a	RESPONSE	n/a	n/a	n/a	n/a	n/a	n/a	n/a	blue
387.4305	1.0167	ITI	n/a	n/a	n/a	n/a	n/a	n/a	n/a	n/a
388.4472	0.5167	FIXCROSS	n/a	n/a	n/a	n/a	n/a	n/a	n/a	n/a
388.9639	0.9	COLOR_NAME	35	Incongruent	niebieski	blue	żółty	yellow	hit	n/a
389.8376	n/a	RESPONSE	n/a	n/a	n/a	n/a	n/a	n/a	n/a	blue
389.8639	1.0167	ITI	n/a	n/a	n/a	n/a	n/a	n/a	n/a	n/a
390.1735	n/a	RESPONSE	n/a	n/a	n/a	n/a	n/a	n/a	n/a	blue
390.8806	0.5167	FIXCROSS	n/a	n/a	n/a	n/a	n/a	n/a	n/a	n/a
391.3972	0.95	COLOR_NAME	36	Neutral	żółty	yellow	Neutral	Neutral	hit	n/a
392.317	n/a	RESPONSE	n/a	n/a	n/a	n/a	n/a	n/a	n/a	yellow
392.3472	1.0167	ITI	n/a	n/a	n/a	n/a	n/a	n/a	n/a	n/a
393.3639	0.5167	FIXCROSS	n/a	n/a	n/a	n/a	n/a	n/a	n/a	n/a
393.8806	0.7833	COLOR_NAME	37	Incongruent	żółty	yellow	czerwony	red	hit	n/a
394.6365	n/a	RESPONSE	n/a	n/a	n/a	n/a	n/a	n/a	n/a	yellow
394.6639	1.0167	ITI	n/a	n/a	n/a	n/a	n/a	n/a	n/a	n/a
395.6806	0.5167	FIXCROSS	n/a	n/a	n/a	n/a	n/a	n/a	n/a	n/a
396.1973	1.5833	COLOR_NAME	38	Neutral	niebieski	blue	Neutral	Neutral	hit	n/a
397.7559	n/a	RESPONSE	n/a	n/a	n/a	n/a	n/a	n/a	n/a	blue
397.7806	1.0167	ITI	n/a	n/a	n/a	n/a	n/a	n/a	n/a	n/a
398.7973	0.5167	FIXCROSS	n/a	n/a	n/a	n/a	n/a	n/a	n/a	n/a
399.314	0.8167	COLOR_NAME	39	Neutral	niebieski	blue	Neutral	Neutral	hit	n/a
400.1074	n/a	RESPONSE	n/a	n/a	n/a	n/a	n/a	n/a	n/a	blue
400.1306	1.0167	ITI	n/a	n/a	n/a	n/a	n/a	n/a	n/a	n/a
401.1473	0.5167	FIXCROSS	n/a	n/a	n/a	n/a	n/a	n/a	n/a	n/a
401.664	0.6833	COLOR_NAME	40	Incongruent	niebieski	blue	czerwony	red	hit	n/a
402.3149	n/a	RESPONSE	n/a	n/a	n/a	n/a	n/a	n/a	n/a	blue
402.3473	1.0167	ITI	n/a	n/a	n/a	n/a	n/a	n/a	n/a	n/a
403.364	0.5167	FIXCROSS	n/a	n/a	n/a	n/a	n/a	n/a	n/a	n/a
403.8807	0.7333	COLOR_NAME	41	Incongruent	niebieski	blue	zielony	green	hit	n/a
404.5864	n/a	RESPONSE	n/a	n/a	n/a	n/a	n/a	n/a	n/a	blue
404.614	1.0167	ITI	n/a	n/a	n/a	n/a	n/a	n/a	n/a	n/a
405.6307	0.5167	FIXCROSS	n/a	n/a	n/a	n/a	n/a	n/a	n/a	n/a
406.1473	1.0	COLOR_NAME	42	Neutral	zielony	green	Neutral	Neutral	hit	n/a
407.1139	n/a	RESPONSE	n/a	n/a	n/a	n/a	n/a	n/a	n/a	green
407.1473	1.0167	ITI	n/a	n/a	n/a	n/a	n/a	n/a	n/a	n/a
408.164	0.5167	FIXCROSS	n/a	n/a	n/a	n/a	n/a	n/a	n/a	n/a
408.6807	1.2167	COLOR_NAME	43	Incongruent	czerwony	red	zielony	green	hit	n/a
409.8653	n/a	RESPONSE	n/a	n/a	n/a	n/a	n/a	n/a	n/a	red
409.8974	1.0167	ITI	n/a	n/a	n/a	n/a	n/a	n/a	n/a	n/a
410.914	0.5167	FIXCROSS	n/a	n/a	n/a	n/a	n/a	n/a	n/a	n/a
411.4307	0.9	COLOR_NAME	44	Neutral	czerwony	red	Neutral	Neutral	hit	n/a
412.3128	n/a	RESPONSE	n/a	n/a	n/a	n/a	n/a	n/a	n/a	red
412.3307	1.0167	ITI	n/a	n/a	n/a	n/a	n/a	n/a	n/a	n/a
413.3474	0.5167	FIXCROSS	n/a	n/a	n/a	n/a	n/a	n/a	n/a	n/a
413.864	0.9	COLOR_NAME	45	Neutral	żółty	yellow	Neutral	Neutral	hit	n/a
414.7443	n/a	RESPONSE	n/a	n/a	n/a	n/a	n/a	n/a	n/a	yellow
414.7641	1.0167	ITI	n/a	n/a	n/a	n/a	n/a	n/a	n/a	n/a
415.7807	0.5167	FIXCROSS	n/a	n/a	n/a	n/a	n/a	n/a	n/a	n/a
416.2974	0.8	COLOR_NAME	46	Neutral	czerwony	red	Neutral	Neutral	hit	n/a
417.0638	n/a	RESPONSE	n/a	n/a	n/a	n/a	n/a	n/a	n/a	red
417.0974	1.0167	ITI	n/a	n/a	n/a	n/a	n/a	n/a	n/a	n/a
418.1141	0.5167	FIXCROSS	n/a	n/a	n/a	n/a	n/a	n/a	n/a	n/a
418.6307	1.0167	COLOR_NAME	47	Incongruent	żółty	yellow	niebieski	blue	hit	n/a
419.6232	n/a	RESPONSE	n/a	n/a	n/a	n/a	n/a	n/a	n/a	yellow
419.6474	1.0167	ITI	n/a	n/a	n/a	n/a	n/a	n/a	n/a	n/a
420.6641	0.5167	FIXCROSS	n/a	n/a	n/a	n/a	n/a	n/a	n/a	n/a
421.1808	0.8333	COLOR_NAME	48	Neutral	czerwony	red	Neutral	Neutral	hit	n/a
421.9907	n/a	RESPONSE	n/a	n/a	n/a	n/a	n/a	n/a	n/a	red
422.0141	1.0167	ITI	n/a	n/a	n/a	n/a	n/a	n/a	n/a	n/a
423.0308	0.5167	FIXCROSS	n/a	n/a	n/a	n/a	n/a	n/a	n/a	n/a
423.5474	0.7333	COLOR_NAME	49	Incongruent	żółty	yellow	czerwony	red	hit	n/a
424.2623	n/a	RESPONSE	n/a	n/a	n/a	n/a	n/a	n/a	n/a	yellow
424.2808	1.0167	ITI	n/a	n/a	n/a	n/a	n/a	n/a	n/a	n/a
425.2975	0.5167	FIXCROSS	n/a	n/a	n/a	n/a	n/a	n/a	n/a	n/a
425.8141	0.8167	COLOR_NAME	50	Incongruent	żółty	yellow	niebieski	blue	hit	n/a
426.5978	n/a	RESPONSE	n/a	n/a	n/a	n/a	n/a	n/a	n/a	yellow
426.6308	1.0167	ITI	n/a	n/a	n/a	n/a	n/a	n/a	n/a	n/a
427.6475	0.5167	FIXCROSS	n/a	n/a	n/a	n/a	n/a	n/a	n/a	n/a
428.1642	0.9167	COLOR_NAME	51	Neutral	niebieski	blue	Neutral	Neutral	hit	n/a
429.0613	n/a	RESPONSE	n/a	n/a	n/a	n/a	n/a	n/a	n/a	blue
429.0808	1.0167	ITI	n/a	n/a	n/a	n/a	n/a	n/a	n/a	n/a
430.0975	0.5167	FIXCROSS	n/a	n/a	n/a	n/a	n/a	n/a	n/a	n/a
430.6142	0.9333	COLOR_NAME	52	Neutral	czerwony	red	Neutral	Neutral	hit	n/a
431.5248	n/a	RESPONSE	n/a	n/a	n/a	n/a	n/a	n/a	n/a	red
431.5475	1.0167	ITI	n/a	n/a	n/a	n/a	n/a	n/a	n/a	n/a
432.5642	0.5167	FIXCROSS	n/a	n/a	n/a	n/a	n/a	n/a	n/a	n/a
433.0809	0.9333	COLOR_NAME	53	Incongruent	zielony	green	żółty	yellow	hit	n/a
433.9882	n/a	RESPONSE	n/a	n/a	n/a	n/a	n/a	n/a	n/a	green
434.0142	1.0167	ITI	n/a	n/a	n/a	n/a	n/a	n/a	n/a	n/a
435.0309	0.5167	FIXCROSS	n/a	n/a	n/a	n/a	n/a	n/a	n/a	n/a
435.5475	1.0833	COLOR_NAME	54	Incongruent	czerwony	red	żółty	yellow	hit	n/a
436.6117	n/a	RESPONSE	n/a	n/a	n/a	n/a	n/a	n/a	n/a	red
436.6309	1.0167	ITI	n/a	n/a	n/a	n/a	n/a	n/a	n/a	n/a
437.6475	0.5167	FIXCROSS	n/a	n/a	n/a	n/a	n/a	n/a	n/a	n/a
438.1642	0.9833	COLOR_NAME	55	Neutral	niebieski	blue	Neutral	Neutral	hit	n/a
439.1232	n/a	RESPONSE	n/a	n/a	n/a	n/a	n/a	n/a	n/a	blue
439.1476	1.0167	ITI	n/a	n/a	n/a	n/a	n/a	n/a	n/a	n/a
440.1642	0.5167	FIXCROSS	n/a	n/a	n/a	n/a	n/a	n/a	n/a	n/a
440.6809	0.8667	COLOR_NAME	56	Neutral	czerwony	red	Neutral	Neutral	hit	n/a
441.5227	n/a	RESPONSE	n/a	n/a	n/a	n/a	n/a	n/a	n/a	red
441.5476	1.0167	ITI	n/a	n/a	n/a	n/a	n/a	n/a	n/a	n/a
442.5642	0.5167	FIXCROSS	n/a	n/a	n/a	n/a	n/a	n/a	n/a	n/a
443.0809	1.0833	COLOR_NAME	57	Neutral	zielony	green	Neutral	Neutral	hit	n/a
444.1461	n/a	RESPONSE	n/a	n/a	n/a	n/a	n/a	n/a	n/a	green
444.1643	1.0167	ITI	n/a	n/a	n/a	n/a	n/a	n/a	n/a	n/a
445.1809	0.5167	FIXCROSS	n/a	n/a	n/a	n/a	n/a	n/a	n/a	n/a
445.6976	0.7833	COLOR_NAME	58	Neutral	niebieski	blue	Neutral	Neutral	hit	n/a
446.4496	n/a	RESPONSE	n/a	n/a	n/a	n/a	n/a	n/a	n/a	blue
446.4809	1.0167	ITI	n/a	n/a	n/a	n/a	n/a	n/a	n/a	n/a
447.4976	0.5167	FIXCROSS	n/a	n/a	n/a	n/a	n/a	n/a	n/a	n/a
448.0143	0.6667	COLOR_NAME	59	Incongruent	niebieski	blue	zielony	green	hit	n/a
448.6571	n/a	RESPONSE	n/a	n/a	n/a	n/a	n/a	n/a	n/a	blue
448.681	1.0167	ITI	n/a	n/a	n/a	n/a	n/a	n/a	n/a	n/a
449.6976	0.5167	FIXCROSS	n/a	n/a	n/a	n/a	n/a	n/a	n/a	n/a
450.2143	0.8833	COLOR_NAME	60	Incongruent	czerwony	red	zielony	green	hit	n/a
451.0726	n/a	RESPONSE	n/a	n/a	n/a	n/a	n/a	n/a	n/a	red
451.0976	1.0167	ITI	n/a	n/a	n/a	n/a	n/a	n/a	n/a	n/a
452.1143	0.5167	FIXCROSS	n/a	n/a	n/a	n/a	n/a	n/a	n/a	n/a
452.631	0.6667	COLOR_NAME	61	Incongruent	żółty	yellow	zielony	green	hit	n/a
453.2802	n/a	RESPONSE	n/a	n/a	n/a	n/a	n/a	n/a	n/a	yellow
453.2977	1.0167	ITI	n/a	n/a	n/a	n/a	n/a	n/a	n/a	n/a
454.3143	0.5167	FIXCROSS	n/a	n/a	n/a	n/a	n/a	n/a	n/a	n/a
454.831	1.2	COLOR_NAME	62	Incongruent	zielony	green	czerwony	red	hit	n/a
455.9996	n/a	RESPONSE	n/a	n/a	n/a	n/a	n/a	n/a	n/a	green
456.031	1.0167	ITI	n/a	n/a	n/a	n/a	n/a	n/a	n/a	n/a
457.0477	0.5167	FIXCROSS	n/a	n/a	n/a	n/a	n/a	n/a	n/a	n/a
457.5643	0.8833	COLOR_NAME	63	Incongruent	żółty	yellow	zielony	green	hit	n/a
458.4151	n/a	RESPONSE	n/a	n/a	n/a	n/a	n/a	n/a	n/a	yellow
458.4477	1.0167	ITI	n/a	n/a	n/a	n/a	n/a	n/a	n/a	n/a
459.4644	0.5167	FIXCROSS	n/a	n/a	n/a	n/a	n/a	n/a	n/a	n/a
459.981	0.7167	COLOR_NAME	64	Neutral	żółty	yellow	Neutral	Neutral	hit	n/a
460.6706	n/a	RESPONSE	n/a	n/a	n/a	n/a	n/a	n/a	n/a	yellow
460.6977	1.0167	ITI	n/a	n/a	n/a	n/a	n/a	n/a	n/a	n/a
461.7144	0.5167	FIXCROSS	n/a	n/a	n/a	n/a	n/a	n/a	n/a	n/a
462.2311	0.6333	COLOR_NAME	65	Neutral	żółty	yellow	Neutral	Neutral	hit	n/a
462.8462	n/a	RESPONSE	n/a	n/a	n/a	n/a	n/a	n/a	n/a	yellow
462.8644	1.0167	ITI	n/a	n/a	n/a	n/a	n/a	n/a	n/a	n/a
463.8811	0.5167	FIXCROSS	n/a	n/a	n/a	n/a	n/a	n/a	n/a	n/a
464.3977	0.5667	COLOR_NAME	66	Neutral	żółty	yellow	Neutral	Neutral	hit	n/a
464.9417	n/a	RESPONSE	n/a	n/a	n/a	n/a	n/a	n/a	n/a	yellow
464.9644	1.0167	ITI	n/a	n/a	n/a	n/a	n/a	n/a	n/a	n/a
465.9811	0.5167	FIXCROSS	n/a	n/a	n/a	n/a	n/a	n/a	n/a	n/a
466.4977	0.85	COLOR_NAME	67	Neutral	zielony	green	Neutral	Neutral	hit	n/a
467.3252	n/a	RESPONSE	n/a	n/a	n/a	n/a	n/a	n/a	n/a	green
467.3478	1.0167	ITI	n/a	n/a	n/a	n/a	n/a	n/a	n/a	n/a
468.3644	0.5167	FIXCROSS	n/a	n/a	n/a	n/a	n/a	n/a	n/a	n/a
468.8811	0.9333	COLOR_NAME	68	Incongruent	czerwony	red	niebieski	blue	hit	n/a
469.7887	n/a	RESPONSE	n/a	n/a	n/a	n/a	n/a	n/a	n/a	red
469.8144	1.0167	ITI	n/a	n/a	n/a	n/a	n/a	n/a	n/a	n/a
470.8311	0.5167	FIXCROSS	n/a	n/a	n/a	n/a	n/a	n/a	n/a	n/a
471.3478	0.7333	COLOR_NAME	69	Incongruent	niebieski	blue	czerwony	red	hit	n/a
472.0602	n/a	RESPONSE	n/a	n/a	n/a	n/a	n/a	n/a	n/a	blue
472.0811	1.0167	ITI	n/a	n/a	n/a	n/a	n/a	n/a	n/a	n/a
473.0978	0.5167	FIXCROSS	n/a	n/a	n/a	n/a	n/a	n/a	n/a	n/a
473.6145	0.8167	COLOR_NAME	70	Incongruent	żółty	yellow	zielony	green	hit	n/a
474.4117	n/a	RESPONSE	n/a	n/a	n/a	n/a	n/a	n/a	n/a	yellow
474.4311	1.0167	ITI	n/a	n/a	n/a	n/a	n/a	n/a	n/a	n/a
475.4478	0.5167	FIXCROSS	n/a	n/a	n/a	n/a	n/a	n/a	n/a	n/a
475.9645	0.85	COLOR_NAME	71	Incongruent	zielony	green	niebieski	blue	hit	n/a
476.7792	n/a	RESPONSE	n/a	n/a	n/a	n/a	n/a	n/a	n/a	green
476.8145	1.0167	ITI	n/a	n/a	n/a	n/a	n/a	n/a	n/a	n/a
477.8312	0.5167	FIXCROSS	n/a	n/a	n/a	n/a	n/a	n/a	n/a	n/a
478.3478	0.5667	COLOR_NAME	72	Incongruent	zielony	green	żółty	yellow	hit	n/a
478.8908	n/a	RESPONSE	n/a	n/a	n/a	n/a	n/a	n/a	n/a	green
478.9145	1.0333	ITI	n/a	n/a	n/a	n/a	n/a	n/a	n/a	n/a
483.4178	n/a	RESPONSE	n/a	n/a	n/a	n/a	n/a	n/a	n/a	n/a
