onset	duration	trial_type	trial_number	stroop_condition	stim_text(PL)	stim_text(eng)	stim_color(PL)	stim_color(eng)	response_type	response_color
0.0	n/a	RESPONSE	n/a	n/a	n/a	n/a	n/a	n/a	n/a	green
0.0001	n/a	RESPONSE	n/a	n/a	n/a	n/a	n/a	n/a	n/a	green
0.0001	n/a	RESPONSE	n/a	n/a	n/a	n/a	n/a	n/a	n/a	red
0.0001	n/a	RESPONSE	n/a	n/a	n/a	n/a	n/a	n/a	n/a	blue
0.0001	n/a	RESPONSE	n/a	n/a	n/a	n/a	n/a	n/a	n/a	yellow
0.0001	n/a	RESPONSE	n/a	n/a	n/a	n/a	n/a	n/a	n/a	red
0.0002	n/a	RESPONSE	n/a	n/a	n/a	n/a	n/a	n/a	n/a	red
0.0002	n/a	RESPONSE	n/a	n/a	n/a	n/a	n/a	n/a	n/a	red
0.0002	n/a	RESPONSE	n/a	n/a	n/a	n/a	n/a	n/a	n/a	blue
0.0002	n/a	RESPONSE	n/a	n/a	n/a	n/a	n/a	n/a	n/a	n/a
0.0002	n/a	RESPONSE	n/a	n/a	n/a	n/a	n/a	n/a	n/a	yellow
0.0002	n/a	RESPONSE	n/a	n/a	n/a	n/a	n/a	n/a	n/a	n/a
0.0002	n/a	RESPONSE	n/a	n/a	n/a	n/a	n/a	n/a	n/a	blue
0.0003	n/a	RESPONSE	n/a	n/a	n/a	n/a	n/a	n/a	n/a	n/a
0.0003	n/a	RESPONSE	n/a	n/a	n/a	n/a	n/a	n/a	n/a	red
0.0003	n/a	RESPONSE	n/a	n/a	n/a	n/a	n/a	n/a	n/a	blue
0.0003	n/a	RESPONSE	n/a	n/a	n/a	n/a	n/a	n/a	n/a	blue
0.0003	n/a	RESPONSE	n/a	n/a	n/a	n/a	n/a	n/a	n/a	green
0.0004	n/a	RESPONSE	n/a	n/a	n/a	n/a	n/a	n/a	n/a	n/a
0.0004	n/a	RESPONSE	n/a	n/a	n/a	n/a	n/a	n/a	n/a	yellow
0.0004	n/a	RESPONSE	n/a	n/a	n/a	n/a	n/a	n/a	n/a	yellow
0.0011	n/a	RESPONSE	n/a	n/a	n/a	n/a	n/a	n/a	n/a	yellow
0.0011	n/a	RESPONSE	n/a	n/a	n/a	n/a	n/a	n/a	n/a	green
0.0011	n/a	RESPONSE	n/a	n/a	n/a	n/a	n/a	n/a	n/a	yellow
0.0011	n/a	RESPONSE	n/a	n/a	n/a	n/a	n/a	n/a	n/a	n/a
0.0011	n/a	RESPONSE	n/a	n/a	n/a	n/a	n/a	n/a	n/a	blue
0.0012	n/a	RESPONSE	n/a	n/a	n/a	n/a	n/a	n/a	n/a	green
0.0012	n/a	RESPONSE	n/a	n/a	n/a	n/a	n/a	n/a	n/a	yellow
0.0012	n/a	RESPONSE	n/a	n/a	n/a	n/a	n/a	n/a	n/a	green
0.0012	n/a	RESPONSE	n/a	n/a	n/a	n/a	n/a	n/a	n/a	n/a
0.0013	n/a	RESPONSE	n/a	n/a	n/a	n/a	n/a	n/a	n/a	yellow
0.0013	n/a	RESPONSE	n/a	n/a	n/a	n/a	n/a	n/a	n/a	n/a
0.0013	n/a	RESPONSE	n/a	n/a	n/a	n/a	n/a	n/a	n/a	blue
0.0013	n/a	RESPONSE	n/a	n/a	n/a	n/a	n/a	n/a	n/a	red
0.0013	n/a	RESPONSE	n/a	n/a	n/a	n/a	n/a	n/a	n/a	n/a
0.0014	n/a	RESPONSE	n/a	n/a	n/a	n/a	n/a	n/a	n/a	green
0.0014	n/a	RESPONSE	n/a	n/a	n/a	n/a	n/a	n/a	n/a	yellow
0.0014	n/a	RESPONSE	n/a	n/a	n/a	n/a	n/a	n/a	n/a	blue
0.0033	n/a	RESPONSE	n/a	n/a	n/a	n/a	n/a	n/a	n/a	red
0.0033	n/a	RESPONSE	n/a	n/a	n/a	n/a	n/a	n/a	n/a	green
0.0033	n/a	RESPONSE	n/a	n/a	n/a	n/a	n/a	n/a	n/a	yellow
0.0034	n/a	RESPONSE	n/a	n/a	n/a	n/a	n/a	n/a	n/a	yellow
0.0034	n/a	RESPONSE	n/a	n/a	n/a	n/a	n/a	n/a	n/a	blue
0.0034	n/a	RESPONSE	n/a	n/a	n/a	n/a	n/a	n/a	n/a	red
0.0034	n/a	RESPONSE	n/a	n/a	n/a	n/a	n/a	n/a	n/a	n/a
0.0034	n/a	RESPONSE	n/a	n/a	n/a	n/a	n/a	n/a	n/a	green
0.0035	n/a	RESPONSE	n/a	n/a	n/a	n/a	n/a	n/a	n/a	yellow
0.0035	n/a	RESPONSE	n/a	n/a	n/a	n/a	n/a	n/a	n/a	red
0.0035	n/a	RESPONSE	n/a	n/a	n/a	n/a	n/a	n/a	n/a	red
0.0035	n/a	RESPONSE	n/a	n/a	n/a	n/a	n/a	n/a	n/a	blue
0.0036	n/a	RESPONSE	n/a	n/a	n/a	n/a	n/a	n/a	n/a	red
0.0036	n/a	RESPONSE	n/a	n/a	n/a	n/a	n/a	n/a	n/a	blue
0.0036	n/a	RESPONSE	n/a	n/a	n/a	n/a	n/a	n/a	n/a	yellow
0.0036	n/a	RESPONSE	n/a	n/a	n/a	n/a	n/a	n/a	n/a	green
35.0224	n/a	RESPONSE	n/a	n/a	n/a	n/a	n/a	n/a	n/a	n/a
35.0833	1.0167	ITI	n/a	n/a	n/a	n/a	n/a	n/a	n/a	n/a
36.1	0.5167	FIXCROSS	n/a	n/a	n/a	n/a	n/a	n/a	n/a	n/a
36.6166	1.4833	T_INK	1	Neutral	xxxxx	xxxxx	zielony	green	hit	n/a
38.0713	n/a	RESPONSE	n/a	n/a	n/a	n/a	n/a	n/a	n/a	green
38.1	0.5167	FEEDBACK	n/a	n/a	n/a	n/a	n/a	n/a	n/a	n/a
38.6167	1.0166	ITI	n/a	n/a	n/a	n/a	n/a	n/a	n/a	n/a
39.6333	0.5167	FIXCROSS	n/a	n/a	n/a	n/a	n/a	n/a	n/a	n/a
40.15	1.55	T_INK	2	Incongruent	niebieski	blue	żółty	yellow	hit	n/a
41.6788	n/a	RESPONSE	n/a	n/a	n/a	n/a	n/a	n/a	n/a	yellow
41.7	0.5166	FEEDBACK	n/a	n/a	n/a	n/a	n/a	n/a	n/a	n/a
42.2167	1.0167	ITI	n/a	n/a	n/a	n/a	n/a	n/a	n/a	n/a
43.2333	0.5167	FIXCROSS	n/a	n/a	n/a	n/a	n/a	n/a	n/a	n/a
43.75	1.0667	T_INK	3	Incongruent	żółty	yellow	niebieski	blue	hit	n/a
44.7915	n/a	RESPONSE	n/a	n/a	n/a	n/a	n/a	n/a	n/a	blue
44.8167	0.5167	FEEDBACK	n/a	n/a	n/a	n/a	n/a	n/a	n/a	n/a
45.3334	1.0167	ITI	n/a	n/a	n/a	n/a	n/a	n/a	n/a	n/a
46.3501	0.5167	FIXCROSS	n/a	n/a	n/a	n/a	n/a	n/a	n/a	n/a
46.8667	1.0667	T_INK	4	Incongruent	zielony	green	niebieski	blue	hit	n/a
47.9042	n/a	RESPONSE	n/a	n/a	n/a	n/a	n/a	n/a	n/a	blue
47.9334	0.5167	FEEDBACK	n/a	n/a	n/a	n/a	n/a	n/a	n/a	n/a
48.4501	1.0167	ITI	n/a	n/a	n/a	n/a	n/a	n/a	n/a	n/a
49.4668	0.5166	FIXCROSS	n/a	n/a	n/a	n/a	n/a	n/a	n/a	n/a
49.9834	1.4667	T_INK	5	Incongruent	żółty	yellow	zielony	green	hit	n/a
51.4161	n/a	RESPONSE	n/a	n/a	n/a	n/a	n/a	n/a	n/a	green
51.4501	0.5167	FEEDBACK	n/a	n/a	n/a	n/a	n/a	n/a	n/a	n/a
51.9668	1.0167	ITI	n/a	n/a	n/a	n/a	n/a	n/a	n/a	n/a
52.9834	0.5167	FIXCROSS	n/a	n/a	n/a	n/a	n/a	n/a	n/a	n/a
53.5001	0.9667	T_INK	6	Neutral	xxxxx	xxxxx	czerwony	red	hit	n/a
54.4331	n/a	RESPONSE	n/a	n/a	n/a	n/a	n/a	n/a	n/a	red
54.4668	0.5167	FEEDBACK	n/a	n/a	n/a	n/a	n/a	n/a	n/a	n/a
54.9835	1.0166	ITI	n/a	n/a	n/a	n/a	n/a	n/a	n/a	n/a
56.0001	0.5167	FIXCROSS	n/a	n/a	n/a	n/a	n/a	n/a	n/a	n/a
56.5168	1.15	T_INK	7	Neutral	xxxxxxxx	xxxxxxxx	żółty	yellow	hit	n/a
57.6415	n/a	RESPONSE	n/a	n/a	n/a	n/a	n/a	n/a	n/a	yellow
57.6668	0.5167	FEEDBACK	n/a	n/a	n/a	n/a	n/a	n/a	n/a	n/a
58.1835	1.0166	ITI	n/a	n/a	n/a	n/a	n/a	n/a	n/a	n/a
59.2001	0.5167	FIXCROSS	n/a	n/a	n/a	n/a	n/a	n/a	n/a	n/a
59.7168	0.9167	T_INK	8	Incongruent	niebieski	blue	zielony	green	hit	n/a
60.6106	n/a	RESPONSE	n/a	n/a	n/a	n/a	n/a	n/a	n/a	green
60.6335	0.5166	FEEDBACK	n/a	n/a	n/a	n/a	n/a	n/a	n/a	n/a
61.1502	1.0167	ITI	n/a	n/a	n/a	n/a	n/a	n/a	n/a	n/a
62.1668	0.5167	FIXCROSS	n/a	n/a	n/a	n/a	n/a	n/a	n/a	n/a
62.6835	0.9667	T_INK	9	Neutral	xxxxxxxx	xxxxxxxx	niebieski	blue	hit	n/a
63.6276	n/a	RESPONSE	n/a	n/a	n/a	n/a	n/a	n/a	n/a	blue
63.6502	0.5167	FEEDBACK	n/a	n/a	n/a	n/a	n/a	n/a	n/a	n/a
64.1669	1.0167	ITI	n/a	n/a	n/a	n/a	n/a	n/a	n/a	n/a
65.1835	0.5167	FIXCROSS	n/a	n/a	n/a	n/a	n/a	n/a	n/a	n/a
65.7002	1.0833	T_INK	10	Neutral	xxxxxxxxx	xxxxxxxxx	zielony	green	hit	n/a
66.7563	n/a	RESPONSE	n/a	n/a	n/a	n/a	n/a	n/a	n/a	green
66.7836	0.5167	FEEDBACK	n/a	n/a	n/a	n/a	n/a	n/a	n/a	n/a
67.3002	1.0166	ITI	n/a	n/a	n/a	n/a	n/a	n/a	n/a	n/a
68.3169	0.5167	FIXCROSS	n/a	n/a	n/a	n/a	n/a	n/a	n/a	n/a
68.8336	1.15	T_INK	11	Incongruent	czerwony	red	niebieski	blue	hit	n/a
69.9648	n/a	RESPONSE	n/a	n/a	n/a	n/a	n/a	n/a	n/a	blue
69.9836	0.5167	FEEDBACK	n/a	n/a	n/a	n/a	n/a	n/a	n/a	n/a
70.5003	1.0167	ITI	n/a	n/a	n/a	n/a	n/a	n/a	n/a	n/a
71.5169	0.5167	FIXCROSS	n/a	n/a	n/a	n/a	n/a	n/a	n/a	n/a
72.0336	0.8667	T_INK	12	Incongruent	czerwony	red	żółty	yellow	hit	n/a
72.87	n/a	RESPONSE	n/a	n/a	n/a	n/a	n/a	n/a	n/a	yellow
72.9003	0.5166	FEEDBACK	n/a	n/a	n/a	n/a	n/a	n/a	n/a	n/a
73.4169	1.0334	ITI	n/a	n/a	n/a	n/a	n/a	n/a	n/a	n/a
79.8457	n/a	RESPONSE	n/a	n/a	n/a	n/a	n/a	n/a	n/a	n/a
79.9003	1.0167	ITI	n/a	n/a	n/a	n/a	n/a	n/a	n/a	n/a
80.917	0.5166	FIXCROSS	n/a	n/a	n/a	n/a	n/a	n/a	n/a	n/a
81.4336	0.8667	INK	1	Incongruent	niebieski	blue	zielony	green	hit	n/a
82.272	n/a	RESPONSE	n/a	n/a	n/a	n/a	n/a	n/a	n/a	green
82.3004	1.0166	ITI	n/a	n/a	n/a	n/a	n/a	n/a	n/a	n/a
83.317	0.5167	FIXCROSS	n/a	n/a	n/a	n/a	n/a	n/a	n/a	n/a
83.8337	0.75	INK	2	Neutral	xxxxxxx	xxxxxxx	niebieski	blue	hit	n/a
84.5548	n/a	RESPONSE	n/a	n/a	n/a	n/a	n/a	n/a	n/a	blue
84.5837	1.0167	ITI	n/a	n/a	n/a	n/a	n/a	n/a	n/a	n/a
85.6003	0.5167	FIXCROSS	n/a	n/a	n/a	n/a	n/a	n/a	n/a	n/a
86.117	0.7333	INK	3	Neutral	xxxxxxxxx	xxxxxxxxx	żółty	yellow	hit	n/a
86.8213	n/a	RESPONSE	n/a	n/a	n/a	n/a	n/a	n/a	n/a	yellow
86.8504	1.0167	ITI	n/a	n/a	n/a	n/a	n/a	n/a	n/a	n/a
87.8671	0.5167	FIXCROSS	n/a	n/a	n/a	n/a	n/a	n/a	n/a	n/a
88.3837	0.8167	INK	4	Incongruent	niebieski	blue	czerwony	red	hit	n/a
89.1679	n/a	RESPONSE	n/a	n/a	n/a	n/a	n/a	n/a	n/a	red
89.2004	1.0167	ITI	n/a	n/a	n/a	n/a	n/a	n/a	n/a	n/a
90.2171	0.5167	FIXCROSS	n/a	n/a	n/a	n/a	n/a	n/a	n/a	n/a
90.7337	0.8	INK	5	Neutral	xxxxxxxx	xxxxxxxx	żółty	yellow	hit	n/a
91.5144	n/a	RESPONSE	n/a	n/a	n/a	n/a	n/a	n/a	n/a	yellow
91.5338	1.0167	ITI	n/a	n/a	n/a	n/a	n/a	n/a	n/a	n/a
92.5504	0.5167	FIXCROSS	n/a	n/a	n/a	n/a	n/a	n/a	n/a	n/a
93.0671	0.7333	INK	6	Incongruent	żółty	yellow	czerwony	red	hit	n/a
93.7811	n/a	RESPONSE	n/a	n/a	n/a	n/a	n/a	n/a	n/a	red
93.8004	1.0167	ITI	n/a	n/a	n/a	n/a	n/a	n/a	n/a	n/a
94.8171	0.5167	FIXCROSS	n/a	n/a	n/a	n/a	n/a	n/a	n/a	n/a
95.3338	0.5333	INK	7	Neutral	xxxxx	xxxxx	czerwony	red	hit	n/a
95.8402	n/a	RESPONSE	n/a	n/a	n/a	n/a	n/a	n/a	n/a	red
95.8671	1.0167	ITI	n/a	n/a	n/a	n/a	n/a	n/a	n/a	n/a
96.8838	0.5167	FIXCROSS	n/a	n/a	n/a	n/a	n/a	n/a	n/a	n/a
97.4005	0.85	INK	8	Incongruent	niebieski	blue	zielony	green	hit	n/a
98.2188	n/a	RESPONSE	n/a	n/a	n/a	n/a	n/a	n/a	n/a	green
98.2505	1.0167	ITI	n/a	n/a	n/a	n/a	n/a	n/a	n/a	n/a
99.2671	0.5167	FIXCROSS	n/a	n/a	n/a	n/a	n/a	n/a	n/a	n/a
99.7838	0.5667	INK	9	Neutral	xxxxxxxxx	xxxxxxxxx	zielony	green	hit	n/a
100.326	n/a	RESPONSE	n/a	n/a	n/a	n/a	n/a	n/a	n/a	green
100.3505	1.0167	ITI	n/a	n/a	n/a	n/a	n/a	n/a	n/a	n/a
101.3672	0.5167	FIXCROSS	n/a	n/a	n/a	n/a	n/a	n/a	n/a	n/a
101.8838	1.0667	INK	10	Incongruent	niebieski	blue	żółty	yellow	hit	n/a
102.9278	n/a	RESPONSE	n/a	n/a	n/a	n/a	n/a	n/a	n/a	yellow
102.9505	1.0166	ITI	n/a	n/a	n/a	n/a	n/a	n/a	n/a	n/a
103.9672	0.5167	FIXCROSS	n/a	n/a	n/a	n/a	n/a	n/a	n/a	n/a
104.4839	0.7166	INK	11	Neutral	xxxxx	xxxxx	czerwony	red	hit	n/a
105.1785	n/a	RESPONSE	n/a	n/a	n/a	n/a	n/a	n/a	n/a	red
105.2005	1.0167	ITI	n/a	n/a	n/a	n/a	n/a	n/a	n/a	n/a
106.2172	0.5166	FIXCROSS	n/a	n/a	n/a	n/a	n/a	n/a	n/a	n/a
106.7338	0.7667	INK	12	Neutral	xxxxxxxx	xxxxxxxx	zielony	green	hit	n/a
107.4771	n/a	RESPONSE	n/a	n/a	n/a	n/a	n/a	n/a	n/a	green
107.5006	1.0166	ITI	n/a	n/a	n/a	n/a	n/a	n/a	n/a	n/a
108.5172	0.5167	FIXCROSS	n/a	n/a	n/a	n/a	n/a	n/a	n/a	n/a
109.0339	1.0167	INK	13	Incongruent	czerwony	red	żółty	yellow	hit	n/a
110.0312	n/a	RESPONSE	n/a	n/a	n/a	n/a	n/a	n/a	n/a	yellow
110.0506	1.0167	ITI	n/a	n/a	n/a	n/a	n/a	n/a	n/a	n/a
111.0673	0.5166	FIXCROSS	n/a	n/a	n/a	n/a	n/a	n/a	n/a	n/a
111.5839	0.85	INK	14	Incongruent	zielony	green	niebieski	blue	hit	n/a
112.4097	n/a	RESPONSE	n/a	n/a	n/a	n/a	n/a	n/a	n/a	blue
112.4339	1.0167	ITI	n/a	n/a	n/a	n/a	n/a	n/a	n/a	n/a
113.4506	0.5166	FIXCROSS	n/a	n/a	n/a	n/a	n/a	n/a	n/a	n/a
113.9672	0.7333	INK	15	Incongruent	żółty	yellow	czerwony	red	hit	n/a
114.6764	n/a	RESPONSE	n/a	n/a	n/a	n/a	n/a	n/a	n/a	red
114.7006	1.0167	ITI	n/a	n/a	n/a	n/a	n/a	n/a	n/a	n/a
115.7173	0.5167	FIXCROSS	n/a	n/a	n/a	n/a	n/a	n/a	n/a	n/a
116.234	0.6333	INK	16	Neutral	xxxxxxx	xxxxxxx	żółty	yellow	hit	n/a
116.8472	n/a	RESPONSE	n/a	n/a	n/a	n/a	n/a	n/a	n/a	yellow
116.8673	1.0167	ITI	n/a	n/a	n/a	n/a	n/a	n/a	n/a	n/a
117.884	0.5167	FIXCROSS	n/a	n/a	n/a	n/a	n/a	n/a	n/a	n/a
118.4006	0.7667	INK	17	Neutral	xxxxxxxx	xxxxxxxx	żółty	yellow	hit	n/a
119.1459	n/a	RESPONSE	n/a	n/a	n/a	n/a	n/a	n/a	n/a	yellow
119.1673	1.0167	ITI	n/a	n/a	n/a	n/a	n/a	n/a	n/a	n/a
120.184	0.5167	FIXCROSS	n/a	n/a	n/a	n/a	n/a	n/a	n/a	n/a
120.7007	0.65	INK	18	Neutral	xxxxx	xxxxx	czerwony	red	hit	n/a
121.317	n/a	RESPONSE	n/a	n/a	n/a	n/a	n/a	n/a	n/a	red
121.3507	1.0167	ITI	n/a	n/a	n/a	n/a	n/a	n/a	n/a	n/a
122.3673	0.5167	FIXCROSS	n/a	n/a	n/a	n/a	n/a	n/a	n/a	n/a
122.884	0.9	INK	19	Incongruent	zielony	green	niebieski	blue	hit	n/a
123.7593	n/a	RESPONSE	n/a	n/a	n/a	n/a	n/a	n/a	n/a	blue
123.784	1.0167	ITI	n/a	n/a	n/a	n/a	n/a	n/a	n/a	n/a
124.8007	0.5167	FIXCROSS	n/a	n/a	n/a	n/a	n/a	n/a	n/a	n/a
125.3174	0.7833	INK	20	Neutral	xxxxxxxx	xxxxxxxx	niebieski	blue	hit	n/a
126.0739	n/a	RESPONSE	n/a	n/a	n/a	n/a	n/a	n/a	n/a	blue
126.1007	1.0167	ITI	n/a	n/a	n/a	n/a	n/a	n/a	n/a	n/a
127.1174	0.5167	FIXCROSS	n/a	n/a	n/a	n/a	n/a	n/a	n/a	n/a
127.6341	0.5167	INK	21	Incongruent	czerwony	red	zielony	green	hit	n/a
128.133	n/a	RESPONSE	n/a	n/a	n/a	n/a	n/a	n/a	n/a	green
128.1507	1.0166	ITI	n/a	n/a	n/a	n/a	n/a	n/a	n/a	n/a
129.1674	0.5167	FIXCROSS	n/a	n/a	n/a	n/a	n/a	n/a	n/a	n/a
129.684	0.6	INK	22	Neutral	xxxxxxx	xxxxxxx	czerwony	red	hit	n/a
130.256	n/a	RESPONSE	n/a	n/a	n/a	n/a	n/a	n/a	n/a	red
130.2841	1.0167	ITI	n/a	n/a	n/a	n/a	n/a	n/a	n/a	n/a
131.3008	0.5167	FIXCROSS	n/a	n/a	n/a	n/a	n/a	n/a	n/a	n/a
131.8174	1.3667	INK	23	Incongruent	żółty	yellow	zielony	green	hit	n/a
133.1613	n/a	RESPONSE	n/a	n/a	n/a	n/a	n/a	n/a	n/a	green
133.1841	1.0167	ITI	n/a	n/a	n/a	n/a	n/a	n/a	n/a	n/a
134.2008	0.5167	FIXCROSS	n/a	n/a	n/a	n/a	n/a	n/a	n/a	n/a
134.7174	0.8	INK	24	Neutral	xxxxxxx	xxxxxxx	żółty	yellow	hit	n/a
135.4918	n/a	RESPONSE	n/a	n/a	n/a	n/a	n/a	n/a	n/a	yellow
135.5174	1.0167	ITI	n/a	n/a	n/a	n/a	n/a	n/a	n/a	n/a
136.5341	0.5166	FIXCROSS	n/a	n/a	n/a	n/a	n/a	n/a	n/a	n/a
137.0508	1.05	INK	25	Neutral	xxxxxxxxx	xxxxxxxxx	żółty	yellow	hit	n/a
138.0778	n/a	RESPONSE	n/a	n/a	n/a	n/a	n/a	n/a	n/a	yellow
138.1008	1.0167	ITI	n/a	n/a	n/a	n/a	n/a	n/a	n/a	n/a
139.1175	0.5167	FIXCROSS	n/a	n/a	n/a	n/a	n/a	n/a	n/a	n/a
139.6341	0.7833	INK	26	Incongruent	czerwony	red	zielony	green	hit	n/a
140.3923	n/a	RESPONSE	n/a	n/a	n/a	n/a	n/a	n/a	n/a	green
140.4175	1.0167	ITI	n/a	n/a	n/a	n/a	n/a	n/a	n/a	n/a
141.4342	0.5167	FIXCROSS	n/a	n/a	n/a	n/a	n/a	n/a	n/a	n/a
141.9508	0.7167	INK	27	Neutral	xxxxx	xxxxx	zielony	green	hit	n/a
142.6431	n/a	RESPONSE	n/a	n/a	n/a	n/a	n/a	n/a	n/a	green
142.6675	1.0167	ITI	n/a	n/a	n/a	n/a	n/a	n/a	n/a	n/a
143.6842	0.5166	FIXCROSS	n/a	n/a	n/a	n/a	n/a	n/a	n/a	n/a
144.2008	0.65	INK	28	Incongruent	czerwony	red	zielony	green	hit	n/a
144.8299	n/a	RESPONSE	n/a	n/a	n/a	n/a	n/a	n/a	n/a	green
144.8509	1.0167	ITI	n/a	n/a	n/a	n/a	n/a	n/a	n/a	n/a
145.8675	0.5167	FIXCROSS	n/a	n/a	n/a	n/a	n/a	n/a	n/a	n/a
146.3842	0.6	INK	29	Incongruent	niebieski	blue	zielony	green	hit	n/a
146.953	n/a	RESPONSE	n/a	n/a	n/a	n/a	n/a	n/a	n/a	green
146.9842	1.0167	ITI	n/a	n/a	n/a	n/a	n/a	n/a	n/a	n/a
148.0009	0.5166	FIXCROSS	n/a	n/a	n/a	n/a	n/a	n/a	n/a	n/a
148.5175	0.7334	INK	30	Neutral	xxxxxxxxx	xxxxxxxxx	czerwony	red	hit	n/a
149.2198	n/a	RESPONSE	n/a	n/a	n/a	n/a	n/a	n/a	n/a	red
149.2509	1.0167	ITI	n/a	n/a	n/a	n/a	n/a	n/a	n/a	n/a
150.2676	0.5167	FIXCROSS	n/a	n/a	n/a	n/a	n/a	n/a	n/a	n/a
150.7842	0.8833	INK	31	Neutral	xxxxxxx	xxxxxxx	niebieski	blue	hit	n/a
151.6461	n/a	RESPONSE	n/a	n/a	n/a	n/a	n/a	n/a	n/a	blue
151.6675	1.0167	ITI	n/a	n/a	n/a	n/a	n/a	n/a	n/a	n/a
152.6842	0.5167	FIXCROSS	n/a	n/a	n/a	n/a	n/a	n/a	n/a	n/a
153.2009	0.8833	INK	32	Neutral	xxxxx	xxxxx	zielony	green	incorrect	n/a
154.0564	n/a	RESPONSE	n/a	n/a	n/a	n/a	n/a	n/a	n/a	yellow
154.0843	1.0167	ITI	n/a	n/a	n/a	n/a	n/a	n/a	n/a	n/a
155.1009	0.5166	FIXCROSS	n/a	n/a	n/a	n/a	n/a	n/a	n/a	n/a
155.6176	1.2334	INK	33	Incongruent	czerwony	red	żółty	yellow	hit	n/a
156.8181	n/a	RESPONSE	n/a	n/a	n/a	n/a	n/a	n/a	n/a	yellow
156.851	1.0166	ITI	n/a	n/a	n/a	n/a	n/a	n/a	n/a	n/a
157.8676	0.5167	FIXCROSS	n/a	n/a	n/a	n/a	n/a	n/a	n/a	n/a
158.3843	1.1333	INK	34	Neutral	xxxxxxxxx	xxxxxxxxx	czerwony	red	hit	n/a
159.4837	n/a	RESPONSE	n/a	n/a	n/a	n/a	n/a	n/a	n/a	red
159.5176	1.0167	ITI	n/a	n/a	n/a	n/a	n/a	n/a	n/a	n/a
160.5343	0.5167	FIXCROSS	n/a	n/a	n/a	n/a	n/a	n/a	n/a	n/a
161.051	1.1667	INK	35	Incongruent	niebieski	blue	żółty	yellow	hit	n/a
162.1975	n/a	RESPONSE	n/a	n/a	n/a	n/a	n/a	n/a	n/a	yellow
162.2177	1.0166	ITI	n/a	n/a	n/a	n/a	n/a	n/a	n/a	n/a
163.2343	0.5167	FIXCROSS	n/a	n/a	n/a	n/a	n/a	n/a	n/a	n/a
163.751	0.8667	INK	36	Incongruent	żółty	yellow	czerwony	red	hit	n/a
164.592	n/a	RESPONSE	n/a	n/a	n/a	n/a	n/a	n/a	n/a	red
164.6177	1.0167	ITI	n/a	n/a	n/a	n/a	n/a	n/a	n/a	n/a
165.6344	0.5167	FIXCROSS	n/a	n/a	n/a	n/a	n/a	n/a	n/a	n/a
166.151	0.6	INK	37	Neutral	xxxxxxx	xxxxxxx	czerwony	red	hit	n/a
166.7309	n/a	RESPONSE	n/a	n/a	n/a	n/a	n/a	n/a	n/a	red
166.751	1.0167	ITI	n/a	n/a	n/a	n/a	n/a	n/a	n/a	n/a
167.7677	0.5167	FIXCROSS	n/a	n/a	n/a	n/a	n/a	n/a	n/a	n/a
168.2844	1.1333	INK	38	Incongruent	żółty	yellow	niebieski	blue	hit	n/a
169.3966	n/a	RESPONSE	n/a	n/a	n/a	n/a	n/a	n/a	n/a	blue
169.4177	1.0167	ITI	n/a	n/a	n/a	n/a	n/a	n/a	n/a	n/a
170.4343	0.5167	FIXCROSS	n/a	n/a	n/a	n/a	n/a	n/a	n/a	n/a
170.951	1.1	INK	39	Neutral	xxxxxxxxx	xxxxxxxxx	zielony	green	hit	n/a
172.0305	n/a	RESPONSE	n/a	n/a	n/a	n/a	n/a	n/a	n/a	green
172.0511	1.0166	ITI	n/a	n/a	n/a	n/a	n/a	n/a	n/a	n/a
173.0677	0.5167	FIXCROSS	n/a	n/a	n/a	n/a	n/a	n/a	n/a	n/a
173.5844	0.95	INK	40	Incongruent	czerwony	red	niebieski	blue	hit	n/a
174.5047	n/a	RESPONSE	n/a	n/a	n/a	n/a	n/a	n/a	n/a	blue
174.5344	1.0166	ITI	n/a	n/a	n/a	n/a	n/a	n/a	n/a	n/a
175.5511	0.5167	FIXCROSS	n/a	n/a	n/a	n/a	n/a	n/a	n/a	n/a
176.0678	0.8	INK	41	Neutral	xxxxxxx	xxxxxxx	czerwony	red	hit	n/a
176.8352	n/a	RESPONSE	n/a	n/a	n/a	n/a	n/a	n/a	n/a	red
176.8678	1.0167	ITI	n/a	n/a	n/a	n/a	n/a	n/a	n/a	n/a
177.8844	0.5167	FIXCROSS	n/a	n/a	n/a	n/a	n/a	n/a	n/a	n/a
178.4011	1.0	INK	42	Incongruent	zielony	green	niebieski	blue	hit	n/a
179.3733	n/a	RESPONSE	n/a	n/a	n/a	n/a	n/a	n/a	n/a	blue
179.4011	1.0167	ITI	n/a	n/a	n/a	n/a	n/a	n/a	n/a	n/a
180.4178	0.5167	FIXCROSS	n/a	n/a	n/a	n/a	n/a	n/a	n/a	n/a
180.9345	0.8333	INK	43	Incongruent	czerwony	red	żółty	yellow	hit	n/a
181.7358	n/a	RESPONSE	n/a	n/a	n/a	n/a	n/a	n/a	n/a	yellow
181.7678	1.0166	ITI	n/a	n/a	n/a	n/a	n/a	n/a	n/a	n/a
182.7845	0.5167	FIXCROSS	n/a	n/a	n/a	n/a	n/a	n/a	n/a	n/a
183.3012	0.7166	INK	44	Neutral	xxxxxxxx	xxxxxxxx	żółty	yellow	hit	n/a
183.9867	n/a	RESPONSE	n/a	n/a	n/a	n/a	n/a	n/a	n/a	yellow
184.0178	1.0167	ITI	n/a	n/a	n/a	n/a	n/a	n/a	n/a	n/a
185.0345	0.5112	FIXCROSS	n/a	n/a	n/a	n/a	n/a	n/a	n/a	n/a
185.5458	0.8721	INK	45	Neutral	xxxxxxxx	xxxxxxxx	niebieski	blue	hit	n/a
186.397	n/a	RESPONSE	n/a	n/a	n/a	n/a	n/a	n/a	n/a	blue
186.4178	1.0167	ITI	n/a	n/a	n/a	n/a	n/a	n/a	n/a	n/a
187.4345	0.5167	FIXCROSS	n/a	n/a	n/a	n/a	n/a	n/a	n/a	n/a
187.9512	0.9333	INK	46	Neutral	xxxxxxxx	xxxxxxxx	zielony	green	hit	n/a
188.8552	n/a	RESPONSE	n/a	n/a	n/a	n/a	n/a	n/a	n/a	green
188.8845	1.0167	ITI	n/a	n/a	n/a	n/a	n/a	n/a	n/a	n/a
189.9012	0.5167	FIXCROSS	n/a	n/a	n/a	n/a	n/a	n/a	n/a	n/a
190.4179	0.85	INK	47	Neutral	xxxxxxx	xxxxxxx	niebieski	blue	hit	n/a
191.2336	n/a	RESPONSE	n/a	n/a	n/a	n/a	n/a	n/a	n/a	blue
191.2679	1.0166	ITI	n/a	n/a	n/a	n/a	n/a	n/a	n/a	n/a
192.2845	0.5167	FIXCROSS	n/a	n/a	n/a	n/a	n/a	n/a	n/a	n/a
192.8012	0.7333	INK	48	Incongruent	czerwony	red	niebieski	blue	hit	n/a
193.5163	n/a	RESPONSE	n/a	n/a	n/a	n/a	n/a	n/a	n/a	blue
193.5346	1.0167	ITI	n/a	n/a	n/a	n/a	n/a	n/a	n/a	n/a
194.5512	0.5167	FIXCROSS	n/a	n/a	n/a	n/a	n/a	n/a	n/a	n/a
195.0679	0.7	INK	49	Incongruent	żółty	yellow	niebieski	blue	hit	n/a
195.7351	n/a	RESPONSE	n/a	n/a	n/a	n/a	n/a	n/a	n/a	blue
195.7679	1.0167	ITI	n/a	n/a	n/a	n/a	n/a	n/a	n/a	n/a
196.7846	0.5167	FIXCROSS	n/a	n/a	n/a	n/a	n/a	n/a	n/a	n/a
197.3013	1.0	INK	50	Neutral	xxxxxxxx	xxxxxxxx	zielony	green	hit	n/a
198.2731	n/a	RESPONSE	n/a	n/a	n/a	n/a	n/a	n/a	n/a	green
198.3013	1.0167	ITI	n/a	n/a	n/a	n/a	n/a	n/a	n/a	n/a
199.318	0.5167	FIXCROSS	n/a	n/a	n/a	n/a	n/a	n/a	n/a	n/a
199.8346	0.8667	INK	51	Neutral	xxxxx	xxxxx	zielony	green	hit	n/a
200.6835	n/a	RESPONSE	n/a	n/a	n/a	n/a	n/a	n/a	n/a	green
200.7013	1.0167	ITI	n/a	n/a	n/a	n/a	n/a	n/a	n/a	n/a
201.718	0.5167	FIXCROSS	n/a	n/a	n/a	n/a	n/a	n/a	n/a	n/a
202.2346	0.8333	INK	52	Neutral	xxxxxxx	xxxxxxx	żółty	yellow	hit	n/a
203.0459	n/a	RESPONSE	n/a	n/a	n/a	n/a	n/a	n/a	n/a	yellow
203.068	1.0167	ITI	n/a	n/a	n/a	n/a	n/a	n/a	n/a	n/a
204.0847	0.5166	FIXCROSS	n/a	n/a	n/a	n/a	n/a	n/a	n/a	n/a
204.6013	0.75	INK	53	Incongruent	zielony	green	żółty	yellow	hit	n/a
205.3286	n/a	RESPONSE	n/a	n/a	n/a	n/a	n/a	n/a	n/a	yellow
205.3513	1.0167	ITI	n/a	n/a	n/a	n/a	n/a	n/a	n/a	n/a
206.368	0.5167	FIXCROSS	n/a	n/a	n/a	n/a	n/a	n/a	n/a	n/a
206.8847	0.9833	INK	54	Neutral	xxxxx	xxxxx	niebieski	blue	hit	n/a
207.8347	n/a	RESPONSE	n/a	n/a	n/a	n/a	n/a	n/a	n/a	blue
207.868	1.0167	ITI	n/a	n/a	n/a	n/a	n/a	n/a	n/a	n/a
208.8847	0.5166	FIXCROSS	n/a	n/a	n/a	n/a	n/a	n/a	n/a	n/a
209.4013	0.8334	INK	55	Incongruent	zielony	green	żółty	yellow	hit	n/a
210.2132	n/a	RESPONSE	n/a	n/a	n/a	n/a	n/a	n/a	n/a	yellow
210.2347	1.0167	ITI	n/a	n/a	n/a	n/a	n/a	n/a	n/a	n/a
211.2514	0.5166	FIXCROSS	n/a	n/a	n/a	n/a	n/a	n/a	n/a	n/a
211.768	0.6667	INK	56	Incongruent	niebieski	blue	czerwony	red	hit	n/a
212.4161	n/a	RESPONSE	n/a	n/a	n/a	n/a	n/a	n/a	n/a	red
212.4347	1.0166	ITI	n/a	n/a	n/a	n/a	n/a	n/a	n/a	n/a
213.4514	0.5167	FIXCROSS	n/a	n/a	n/a	n/a	n/a	n/a	n/a	n/a
213.9681	0.8667	INK	57	Incongruent	żółty	yellow	niebieski	blue	hit	n/a
214.8106	n/a	RESPONSE	n/a	n/a	n/a	n/a	n/a	n/a	n/a	blue
214.8348	1.0166	ITI	n/a	n/a	n/a	n/a	n/a	n/a	n/a	n/a
215.8514	0.5167	FIXCROSS	n/a	n/a	n/a	n/a	n/a	n/a	n/a	n/a
216.3681	0.75	INK	58	Neutral	xxxxxxxx	xxxxxxxx	niebieski	blue	hit	n/a
217.0931	n/a	RESPONSE	n/a	n/a	n/a	n/a	n/a	n/a	n/a	blue
217.1181	1.0167	ITI	n/a	n/a	n/a	n/a	n/a	n/a	n/a	n/a
218.1348	0.5166	FIXCROSS	n/a	n/a	n/a	n/a	n/a	n/a	n/a	n/a
218.6514	0.8834	INK	59	Incongruent	żółty	yellow	zielony	green	hit	n/a
219.5036	n/a	RESPONSE	n/a	n/a	n/a	n/a	n/a	n/a	n/a	green
219.5348	1.0167	ITI	n/a	n/a	n/a	n/a	n/a	n/a	n/a	n/a
220.5515	0.5167	FIXCROSS	n/a	n/a	n/a	n/a	n/a	n/a	n/a	n/a
221.0681	0.7	INK	60	Neutral	xxxxxxxxx	xxxxxxxxx	czerwony	red	hit	n/a
221.7384	n/a	RESPONSE	n/a	n/a	n/a	n/a	n/a	n/a	n/a	red
221.7681	1.0167	ITI	n/a	n/a	n/a	n/a	n/a	n/a	n/a	n/a
222.7848	0.5167	FIXCROSS	n/a	n/a	n/a	n/a	n/a	n/a	n/a	n/a
223.3015	0.9	INK	61	Incongruent	czerwony	red	niebieski	blue	hit	n/a
224.1806	n/a	RESPONSE	n/a	n/a	n/a	n/a	n/a	n/a	n/a	blue
224.2015	1.0167	ITI	n/a	n/a	n/a	n/a	n/a	n/a	n/a	n/a
225.2182	0.5167	FIXCROSS	n/a	n/a	n/a	n/a	n/a	n/a	n/a	n/a
225.7348	0.6833	INK	62	Neutral	xxxxx	xxxxx	niebieski	blue	hit	n/a
226.3995	n/a	RESPONSE	n/a	n/a	n/a	n/a	n/a	n/a	n/a	blue
226.4182	1.0167	ITI	n/a	n/a	n/a	n/a	n/a	n/a	n/a	n/a
227.4349	0.5167	FIXCROSS	n/a	n/a	n/a	n/a	n/a	n/a	n/a	n/a
227.9515	0.8833	INK	63	Incongruent	zielony	green	czerwony	red	hit	n/a
228.8098	n/a	RESPONSE	n/a	n/a	n/a	n/a	n/a	n/a	n/a	red
228.8348	1.0167	ITI	n/a	n/a	n/a	n/a	n/a	n/a	n/a	n/a
229.8515	0.5167	FIXCROSS	n/a	n/a	n/a	n/a	n/a	n/a	n/a	n/a
230.3682	0.7667	INK	64	Neutral	xxxxxxxxx	xxxxxxxxx	zielony	green	hit	n/a
231.1085	n/a	RESPONSE	n/a	n/a	n/a	n/a	n/a	n/a	n/a	green
231.1349	1.0167	ITI	n/a	n/a	n/a	n/a	n/a	n/a	n/a	n/a
232.1515	0.5167	FIXCROSS	n/a	n/a	n/a	n/a	n/a	n/a	n/a	n/a
232.6682	0.7667	INK	65	Incongruent	niebieski	blue	czerwony	red	hit	n/a
233.407	n/a	RESPONSE	n/a	n/a	n/a	n/a	n/a	n/a	n/a	red
233.4349	1.0167	ITI	n/a	n/a	n/a	n/a	n/a	n/a	n/a	n/a
234.4516	0.5167	FIXCROSS	n/a	n/a	n/a	n/a	n/a	n/a	n/a	n/a
234.9682	0.7833	INK	66	Neutral	xxxxx	xxxxx	niebieski	blue	hit	n/a
235.7215	n/a	RESPONSE	n/a	n/a	n/a	n/a	n/a	n/a	n/a	blue
235.7516	1.0167	ITI	n/a	n/a	n/a	n/a	n/a	n/a	n/a	n/a
236.7682	0.5167	FIXCROSS	n/a	n/a	n/a	n/a	n/a	n/a	n/a	n/a
237.2849	0.7833	INK	67	Incongruent	zielony	green	czerwony	red	hit	n/a
238.0361	n/a	RESPONSE	n/a	n/a	n/a	n/a	n/a	n/a	n/a	red
238.0682	1.0167	ITI	n/a	n/a	n/a	n/a	n/a	n/a	n/a	n/a
239.0849	0.5166	FIXCROSS	n/a	n/a	n/a	n/a	n/a	n/a	n/a	n/a
239.6016	0.4667	INK	68	Incongruent	zielony	green	czerwony	red	hit	n/a
240.0475	n/a	RESPONSE	n/a	n/a	n/a	n/a	n/a	n/a	n/a	red
240.0683	1.0166	ITI	n/a	n/a	n/a	n/a	n/a	n/a	n/a	n/a
241.0849	0.5167	FIXCROSS	n/a	n/a	n/a	n/a	n/a	n/a	n/a	n/a
241.6016	0.75	INK	69	Neutral	xxxxxxxxx	xxxxxxxxx	żółty	yellow	hit	n/a
242.3301	n/a	RESPONSE	n/a	n/a	n/a	n/a	n/a	n/a	n/a	yellow
242.3516	1.0167	ITI	n/a	n/a	n/a	n/a	n/a	n/a	n/a	n/a
243.3683	0.5166	FIXCROSS	n/a	n/a	n/a	n/a	n/a	n/a	n/a	n/a
243.8849	0.8333	INK	70	Incongruent	żółty	yellow	zielony	green	hit	n/a
244.6926	n/a	RESPONSE	n/a	n/a	n/a	n/a	n/a	n/a	n/a	green
244.7183	1.0167	ITI	n/a	n/a	n/a	n/a	n/a	n/a	n/a	n/a
245.735	0.5166	FIXCROSS	n/a	n/a	n/a	n/a	n/a	n/a	n/a	n/a
246.2516	0.8	INK	71	Incongruent	niebieski	blue	żółty	yellow	hit	n/a
247.0233	n/a	RESPONSE	n/a	n/a	n/a	n/a	n/a	n/a	n/a	yellow
247.0517	1.0167	ITI	n/a	n/a	n/a	n/a	n/a	n/a	n/a	n/a
248.0683	0.5166	FIXCROSS	n/a	n/a	n/a	n/a	n/a	n/a	n/a	n/a
248.585	1.0334	INK	72	Incongruent	zielony	green	żółty	yellow	hit	n/a
249.5933	n/a	RESPONSE	n/a	n/a	n/a	n/a	n/a	n/a	n/a	yellow
249.6184	1.0833	ITI	n/a	n/a	n/a	n/a	n/a	n/a	n/a	n/a
268.4771	n/a	RESPONSE	n/a	n/a	n/a	n/a	n/a	n/a	n/a	n/a
268.5352	1.0167	ITI	n/a	n/a	n/a	n/a	n/a	n/a	n/a	n/a
269.5518	0.5167	FIXCROSS	n/a	n/a	n/a	n/a	n/a	n/a	n/a	n/a
270.0685	1.45	T_COLOR_NAME	1	Incongruent	czerwony	red	żółty	yellow	hit	n/a
271.494	n/a	RESPONSE	n/a	n/a	n/a	n/a	n/a	n/a	n/a	red
271.5185	0.5167	FEEDBACK	n/a	n/a	n/a	n/a	n/a	n/a	n/a	n/a
272.0352	1.0167	ITI	n/a	n/a	n/a	n/a	n/a	n/a	n/a	n/a
273.0519	0.5167	FIXCROSS	n/a	n/a	n/a	n/a	n/a	n/a	n/a	n/a
273.5686	1.1333	T_COLOR_NAME	2	Incongruent	żółty	yellow	zielony	green	hit	n/a
274.6706	n/a	RESPONSE	n/a	n/a	n/a	n/a	n/a	n/a	n/a	yellow
274.7019	0.5167	FEEDBACK	n/a	n/a	n/a	n/a	n/a	n/a	n/a	n/a
275.2186	1.0166	ITI	n/a	n/a	n/a	n/a	n/a	n/a	n/a	n/a
276.2352	0.5167	FIXCROSS	n/a	n/a	n/a	n/a	n/a	n/a	n/a	n/a
276.7519	1.6666	T_COLOR_NAME	3	Neutral	czerwony	red	Neutral	Neutral	hit	n/a
278.3899	n/a	RESPONSE	n/a	n/a	n/a	n/a	n/a	n/a	n/a	red
278.4186	0.5167	FEEDBACK	n/a	n/a	n/a	n/a	n/a	n/a	n/a	n/a
278.9353	1.0167	ITI	n/a	n/a	n/a	n/a	n/a	n/a	n/a	n/a
279.9519	0.5167	FIXCROSS	n/a	n/a	n/a	n/a	n/a	n/a	n/a	n/a
280.4686	0.8167	T_COLOR_NAME	4	Incongruent	czerwony	red	niebieski	blue	hit	n/a
281.2633	n/a	RESPONSE	n/a	n/a	n/a	n/a	n/a	n/a	n/a	red
281.2853	0.5167	FEEDBACK	n/a	n/a	n/a	n/a	n/a	n/a	n/a	n/a
281.802	1.0167	ITI	n/a	n/a	n/a	n/a	n/a	n/a	n/a	n/a
282.8186	0.5166	FIXCROSS	n/a	n/a	n/a	n/a	n/a	n/a	n/a	n/a
283.3353	0.9	T_COLOR_NAME	5	Incongruent	niebieski	blue	żółty	yellow	hit	n/a
284.2004	n/a	RESPONSE	n/a	n/a	n/a	n/a	n/a	n/a	n/a	blue
284.2353	0.5167	FEEDBACK	n/a	n/a	n/a	n/a	n/a	n/a	n/a	n/a
284.752	1.0166	ITI	n/a	n/a	n/a	n/a	n/a	n/a	n/a	n/a
285.7686	0.5167	FIXCROSS	n/a	n/a	n/a	n/a	n/a	n/a	n/a	n/a
286.2853	1.0166	T_COLOR_NAME	6	Neutral	żółty	yellow	Neutral	Neutral	hit	n/a
287.2812	n/a	RESPONSE	n/a	n/a	n/a	n/a	n/a	n/a	n/a	yellow
287.302	0.5167	FEEDBACK	n/a	n/a	n/a	n/a	n/a	n/a	n/a	n/a
287.8187	1.0167	ITI	n/a	n/a	n/a	n/a	n/a	n/a	n/a	n/a
288.8353	0.5167	FIXCROSS	n/a	n/a	n/a	n/a	n/a	n/a	n/a	n/a
289.352	0.95	T_COLOR_NAME	7	Neutral	żółty	yellow	Neutral	Neutral	hit	n/a
290.2822	n/a	RESPONSE	n/a	n/a	n/a	n/a	n/a	n/a	n/a	yellow
290.302	0.5167	FEEDBACK	n/a	n/a	n/a	n/a	n/a	n/a	n/a	n/a
290.8187	1.0167	ITI	n/a	n/a	n/a	n/a	n/a	n/a	n/a	n/a
291.8354	0.5167	FIXCROSS	n/a	n/a	n/a	n/a	n/a	n/a	n/a	n/a
292.352	0.9833	T_COLOR_NAME	8	Incongruent	żółty	yellow	niebieski	blue	hit	n/a
293.3151	n/a	RESPONSE	n/a	n/a	n/a	n/a	n/a	n/a	n/a	yellow
293.3353	0.5167	FEEDBACK	n/a	n/a	n/a	n/a	n/a	n/a	n/a	n/a
293.852	1.0167	ITI	n/a	n/a	n/a	n/a	n/a	n/a	n/a	n/a
294.8687	0.5167	FIXCROSS	n/a	n/a	n/a	n/a	n/a	n/a	n/a	n/a
295.3854	0.9167	T_COLOR_NAME	9	Incongruent	zielony	green	niebieski	blue	hit	n/a
296.2683	n/a	RESPONSE	n/a	n/a	n/a	n/a	n/a	n/a	n/a	green
296.3021	0.5167	FEEDBACK	n/a	n/a	n/a	n/a	n/a	n/a	n/a	n/a
296.8187	1.0166	ITI	n/a	n/a	n/a	n/a	n/a	n/a	n/a	n/a
297.8354	0.5167	FIXCROSS	n/a	n/a	n/a	n/a	n/a	n/a	n/a	n/a
298.3521	1.2	T_COLOR_NAME	10	Incongruent	niebieski	blue	zielony	green	hit	n/a
299.5247	n/a	RESPONSE	n/a	n/a	n/a	n/a	n/a	n/a	n/a	blue
299.5521	0.5167	FEEDBACK	n/a	n/a	n/a	n/a	n/a	n/a	n/a	n/a
300.0688	1.0166	ITI	n/a	n/a	n/a	n/a	n/a	n/a	n/a	n/a
301.0854	0.5167	FIXCROSS	n/a	n/a	n/a	n/a	n/a	n/a	n/a	n/a
301.6021	0.8	T_COLOR_NAME	11	Neutral	czerwony	red	Neutral	Neutral	hit	n/a
302.3819	n/a	RESPONSE	n/a	n/a	n/a	n/a	n/a	n/a	n/a	red
302.4021	0.5166	FEEDBACK	n/a	n/a	n/a	n/a	n/a	n/a	n/a	n/a
302.9188	1.0167	ITI	n/a	n/a	n/a	n/a	n/a	n/a	n/a	n/a
303.9355	0.5167	FIXCROSS	n/a	n/a	n/a	n/a	n/a	n/a	n/a	n/a
304.4521	0.9333	T_COLOR_NAME	12	Neutral	niebieski	blue	Neutral	Neutral	hit	n/a
305.351	n/a	RESPONSE	n/a	n/a	n/a	n/a	n/a	n/a	n/a	blue
305.3855	0.5167	FEEDBACK	n/a	n/a	n/a	n/a	n/a	n/a	n/a	n/a
305.9021	1.0333	ITI	n/a	n/a	n/a	n/a	n/a	n/a	n/a	n/a
308.7511	n/a	RESPONSE	n/a	n/a	n/a	n/a	n/a	n/a	n/a	n/a
308.8188	1.0167	ITI	n/a	n/a	n/a	n/a	n/a	n/a	n/a	n/a
309.8355	0.5167	FIXCROSS	n/a	n/a	n/a	n/a	n/a	n/a	n/a	n/a
310.3522	0.95	COLOR_NAME	1	Incongruent	niebieski	blue	żółty	yellow	hit	n/a
311.2731	n/a	RESPONSE	n/a	n/a	n/a	n/a	n/a	n/a	n/a	blue
311.3022	1.0167	ITI	n/a	n/a	n/a	n/a	n/a	n/a	n/a	n/a
312.3189	0.5167	FIXCROSS	n/a	n/a	n/a	n/a	n/a	n/a	n/a	n/a
312.8355	0.7667	COLOR_NAME	2	Neutral	czerwony	red	Neutral	Neutral	hit	n/a
313.572	n/a	RESPONSE	n/a	n/a	n/a	n/a	n/a	n/a	n/a	red
313.6022	1.0167	ITI	n/a	n/a	n/a	n/a	n/a	n/a	n/a	n/a
314.6189	0.5166	FIXCROSS	n/a	n/a	n/a	n/a	n/a	n/a	n/a	n/a
315.1355	0.9834	COLOR_NAME	3	Neutral	niebieski	blue	Neutral	Neutral	hit	n/a
316.0941	n/a	RESPONSE	n/a	n/a	n/a	n/a	n/a	n/a	n/a	blue
316.1189	1.0167	ITI	n/a	n/a	n/a	n/a	n/a	n/a	n/a	n/a
317.1356	0.5167	FIXCROSS	n/a	n/a	n/a	n/a	n/a	n/a	n/a	n/a
317.6522	0.8167	COLOR_NAME	4	Neutral	żółty	yellow	Neutral	Neutral	hit	n/a
318.4406	n/a	RESPONSE	n/a	n/a	n/a	n/a	n/a	n/a	n/a	yellow
318.4689	1.0166	ITI	n/a	n/a	n/a	n/a	n/a	n/a	n/a	n/a
319.4856	0.5167	FIXCROSS	n/a	n/a	n/a	n/a	n/a	n/a	n/a	n/a
320.0023	0.6667	COLOR_NAME	5	Neutral	zielony	green	Neutral	Neutral	hit	n/a
320.6435	n/a	RESPONSE	n/a	n/a	n/a	n/a	n/a	n/a	n/a	green
320.6689	1.0166	ITI	n/a	n/a	n/a	n/a	n/a	n/a	n/a	n/a
321.6856	0.5167	FIXCROSS	n/a	n/a	n/a	n/a	n/a	n/a	n/a	n/a
322.2022	1.65	COLOR_NAME	6	Neutral	zielony	green	Neutral	Neutral	hit	n/a
323.82	n/a	RESPONSE	n/a	n/a	n/a	n/a	n/a	n/a	n/a	green
323.8523	1.0167	ITI	n/a	n/a	n/a	n/a	n/a	n/a	n/a	n/a
324.869	0.5167	FIXCROSS	n/a	n/a	n/a	n/a	n/a	n/a	n/a	n/a
325.3856	1.05	COLOR_NAME	7	Incongruent	żółty	yellow	niebieski	blue	hit	n/a
326.4061	n/a	RESPONSE	n/a	n/a	n/a	n/a	n/a	n/a	n/a	yellow
326.4356	1.0167	ITI	n/a	n/a	n/a	n/a	n/a	n/a	n/a	n/a
327.4523	0.5167	FIXCROSS	n/a	n/a	n/a	n/a	n/a	n/a	n/a	n/a
327.9689	0.8834	COLOR_NAME	8	Neutral	czerwony	red	Neutral	Neutral	hit	n/a
328.8324	n/a	RESPONSE	n/a	n/a	n/a	n/a	n/a	n/a	n/a	red
328.8523	1.0166	ITI	n/a	n/a	n/a	n/a	n/a	n/a	n/a	n/a
329.869	0.5167	FIXCROSS	n/a	n/a	n/a	n/a	n/a	n/a	n/a	n/a
330.3857	1.55	COLOR_NAME	9	Incongruent	zielony	green	niebieski	blue	hit	n/a
331.9133	n/a	RESPONSE	n/a	n/a	n/a	n/a	n/a	n/a	n/a	green
331.9357	1.0167	ITI	n/a	n/a	n/a	n/a	n/a	n/a	n/a	n/a
332.9524	0.5166	FIXCROSS	n/a	n/a	n/a	n/a	n/a	n/a	n/a	n/a
333.469	1.1334	COLOR_NAME	10	Incongruent	czerwony	red	żółty	yellow	hit	n/a
334.579	n/a	RESPONSE	n/a	n/a	n/a	n/a	n/a	n/a	n/a	red
334.6024	1.0167	ITI	n/a	n/a	n/a	n/a	n/a	n/a	n/a	n/a
335.619	0.5167	FIXCROSS	n/a	n/a	n/a	n/a	n/a	n/a	n/a	n/a
336.1357	1.05	COLOR_NAME	11	Neutral	zielony	green	Neutral	Neutral	hit	n/a
337.1649	n/a	RESPONSE	n/a	n/a	n/a	n/a	n/a	n/a	n/a	green
337.1857	1.0167	ITI	n/a	n/a	n/a	n/a	n/a	n/a	n/a	n/a
338.2024	0.5167	FIXCROSS	n/a	n/a	n/a	n/a	n/a	n/a	n/a	n/a
338.7191	1.0667	COLOR_NAME	12	Incongruent	żółty	yellow	zielony	green	hit	n/a
339.7669	n/a	RESPONSE	n/a	n/a	n/a	n/a	n/a	n/a	n/a	yellow
339.7857	1.0166	ITI	n/a	n/a	n/a	n/a	n/a	n/a	n/a	n/a
340.8024	0.5167	FIXCROSS	n/a	n/a	n/a	n/a	n/a	n/a	n/a	n/a
341.3191	0.7333	COLOR_NAME	13	Neutral	czerwony	red	Neutral	Neutral	hit	n/a
342.0336	n/a	RESPONSE	n/a	n/a	n/a	n/a	n/a	n/a	n/a	red
342.0524	1.0167	ITI	n/a	n/a	n/a	n/a	n/a	n/a	n/a	n/a
343.0691	0.5167	FIXCROSS	n/a	n/a	n/a	n/a	n/a	n/a	n/a	n/a
343.5858	0.8167	COLOR_NAME	14	Neutral	niebieski	blue	Neutral	Neutral	hit	n/a
344.3801	n/a	RESPONSE	n/a	n/a	n/a	n/a	n/a	n/a	n/a	blue
344.4024	1.0167	ITI	n/a	n/a	n/a	n/a	n/a	n/a	n/a	n/a
345.4191	0.5167	FIXCROSS	n/a	n/a	n/a	n/a	n/a	n/a	n/a	n/a
345.9358	1.3167	COLOR_NAME	15	Incongruent	niebieski	blue	czerwony	red	hit	n/a
347.2214	n/a	RESPONSE	n/a	n/a	n/a	n/a	n/a	n/a	n/a	blue
347.2525	1.0166	ITI	n/a	n/a	n/a	n/a	n/a	n/a	n/a	n/a
348.2691	0.5167	FIXCROSS	n/a	n/a	n/a	n/a	n/a	n/a	n/a	n/a
348.7858	0.8	COLOR_NAME	16	Incongruent	czerwony	red	niebieski	blue	hit	n/a
349.5679	n/a	RESPONSE	n/a	n/a	n/a	n/a	n/a	n/a	n/a	red
349.5858	1.0167	ITI	n/a	n/a	n/a	n/a	n/a	n/a	n/a	n/a
350.6025	0.5167	FIXCROSS	n/a	n/a	n/a	n/a	n/a	n/a	n/a	n/a
351.1192	1.0333	COLOR_NAME	17	Incongruent	zielony	green	żółty	yellow	hit	n/a
352.1221	n/a	RESPONSE	n/a	n/a	n/a	n/a	n/a	n/a	n/a	green
352.1525	1.0167	ITI	n/a	n/a	n/a	n/a	n/a	n/a	n/a	n/a
353.1692	0.5166	FIXCROSS	n/a	n/a	n/a	n/a	n/a	n/a	n/a	n/a
353.6858	0.6834	COLOR_NAME	18	Neutral	czerwony	red	Neutral	Neutral	hit	n/a
354.3408	n/a	RESPONSE	n/a	n/a	n/a	n/a	n/a	n/a	n/a	red
354.3692	1.0166	ITI	n/a	n/a	n/a	n/a	n/a	n/a	n/a	n/a
355.3858	0.5167	FIXCROSS	n/a	n/a	n/a	n/a	n/a	n/a	n/a	n/a
355.9025	0.6333	COLOR_NAME	19	Neutral	czerwony	red	Neutral	Neutral	hit	n/a
356.5118	n/a	RESPONSE	n/a	n/a	n/a	n/a	n/a	n/a	n/a	red
356.5359	1.0167	ITI	n/a	n/a	n/a	n/a	n/a	n/a	n/a	n/a
357.5525	0.5167	FIXCROSS	n/a	n/a	n/a	n/a	n/a	n/a	n/a	n/a
358.0692	1.0834	COLOR_NAME	20	Incongruent	żółty	yellow	niebieski	blue	hit	n/a
359.1297	n/a	RESPONSE	n/a	n/a	n/a	n/a	n/a	n/a	n/a	yellow
359.1526	1.0167	ITI	n/a	n/a	n/a	n/a	n/a	n/a	n/a	n/a
360.1693	0.5166	FIXCROSS	n/a	n/a	n/a	n/a	n/a	n/a	n/a	n/a
360.6859	0.85	COLOR_NAME	21	Neutral	zielony	green	Neutral	Neutral	hit	n/a
361.5082	n/a	RESPONSE	n/a	n/a	n/a	n/a	n/a	n/a	n/a	green
361.5359	1.0167	ITI	n/a	n/a	n/a	n/a	n/a	n/a	n/a	n/a
362.5526	0.5166	FIXCROSS	n/a	n/a	n/a	n/a	n/a	n/a	n/a	n/a
363.0692	0.7833	COLOR_NAME	22	Neutral	czerwony	red	Neutral	Neutral	hit	n/a
363.8227	n/a	RESPONSE	n/a	n/a	n/a	n/a	n/a	n/a	n/a	red
363.8526	1.0167	ITI	n/a	n/a	n/a	n/a	n/a	n/a	n/a	n/a
364.8693	0.5167	FIXCROSS	n/a	n/a	n/a	n/a	n/a	n/a	n/a	n/a
365.386	0.6667	COLOR_NAME	23	Neutral	czerwony	red	Neutral	Neutral	hit	n/a
366.0254	n/a	RESPONSE	n/a	n/a	n/a	n/a	n/a	n/a	n/a	red
366.0526	1.0167	ITI	n/a	n/a	n/a	n/a	n/a	n/a	n/a	n/a
367.0693	0.5166	FIXCROSS	n/a	n/a	n/a	n/a	n/a	n/a	n/a	n/a
367.5859	1.1667	COLOR_NAME	24	Incongruent	żółty	yellow	czerwony	red	hit	n/a
368.7232	n/a	RESPONSE	n/a	n/a	n/a	n/a	n/a	n/a	n/a	yellow
368.7526	1.0167	ITI	n/a	n/a	n/a	n/a	n/a	n/a	n/a	n/a
369.7693	0.5166	FIXCROSS	n/a	n/a	n/a	n/a	n/a	n/a	n/a	n/a
370.286	1.55	COLOR_NAME	25	Incongruent	czerwony	red	żółty	yellow	hit	n/a
371.804	n/a	RESPONSE	n/a	n/a	n/a	n/a	n/a	n/a	n/a	red
371.836	1.0165	ITI	n/a	n/a	n/a	n/a	n/a	n/a	n/a	n/a
372.8525	0.5168	FIXCROSS	n/a	n/a	n/a	n/a	n/a	n/a	n/a	n/a
373.3694	0.7833	COLOR_NAME	26	Incongruent	czerwony	red	niebieski	blue	hit	n/a
374.1346	n/a	RESPONSE	n/a	n/a	n/a	n/a	n/a	n/a	n/a	red
374.1527	1.0167	ITI	n/a	n/a	n/a	n/a	n/a	n/a	n/a	n/a
375.1694	0.5167	FIXCROSS	n/a	n/a	n/a	n/a	n/a	n/a	n/a	n/a
375.686	1.1	COLOR_NAME	27	Incongruent	zielony	green	czerwony	red	hit	n/a
376.7685	n/a	RESPONSE	n/a	n/a	n/a	n/a	n/a	n/a	n/a	green
376.786	1.0167	ITI	n/a	n/a	n/a	n/a	n/a	n/a	n/a	n/a
377.8027	0.5167	FIXCROSS	n/a	n/a	n/a	n/a	n/a	n/a	n/a	n/a
378.3194	0.95	COLOR_NAME	28	Incongruent	zielony	green	czerwony	red	hit	n/a
379.2427	n/a	RESPONSE	n/a	n/a	n/a	n/a	n/a	n/a	n/a	green
379.2694	1.0167	ITI	n/a	n/a	n/a	n/a	n/a	n/a	n/a	n/a
380.2861	0.5166	FIXCROSS	n/a	n/a	n/a	n/a	n/a	n/a	n/a	n/a
380.8027	0.75	COLOR_NAME	29	Neutral	zielony	green	Neutral	Neutral	hit	n/a
381.5253	n/a	RESPONSE	n/a	n/a	n/a	n/a	n/a	n/a	n/a	green
381.5527	1.0167	ITI	n/a	n/a	n/a	n/a	n/a	n/a	n/a	n/a
382.5694	0.5166	FIXCROSS	n/a	n/a	n/a	n/a	n/a	n/a	n/a	n/a
383.0861	1.0	COLOR_NAME	30	Neutral	niebieski	blue	Neutral	Neutral	hit	n/a
384.0634	n/a	RESPONSE	n/a	n/a	n/a	n/a	n/a	n/a	n/a	blue
384.0861	1.0167	ITI	n/a	n/a	n/a	n/a	n/a	n/a	n/a	n/a
385.1027	0.5167	FIXCROSS	n/a	n/a	n/a	n/a	n/a	n/a	n/a	n/a
385.6194	0.95	COLOR_NAME	31	Neutral	niebieski	blue	Neutral	Neutral	hit	n/a
386.5376	n/a	RESPONSE	n/a	n/a	n/a	n/a	n/a	n/a	n/a	blue
386.5694	1.0167	ITI	n/a	n/a	n/a	n/a	n/a	n/a	n/a	n/a
387.5861	0.5167	FIXCROSS	n/a	n/a	n/a	n/a	n/a	n/a	n/a	n/a
388.1028	0.9	COLOR_NAME	32	Incongruent	czerwony	red	zielony	green	hit	n/a
388.98	n/a	RESPONSE	n/a	n/a	n/a	n/a	n/a	n/a	n/a	red
389.0028	1.0167	ITI	n/a	n/a	n/a	n/a	n/a	n/a	n/a	n/a
390.0195	0.5167	FIXCROSS	n/a	n/a	n/a	n/a	n/a	n/a	n/a	n/a
390.5362	0.7333	COLOR_NAME	33	Neutral	czerwony	red	Neutral	Neutral	hit	n/a
391.2467	n/a	RESPONSE	n/a	n/a	n/a	n/a	n/a	n/a	n/a	red
391.2695	1.0167	ITI	n/a	n/a	n/a	n/a	n/a	n/a	n/a	n/a
392.2862	0.5167	FIXCROSS	n/a	n/a	n/a	n/a	n/a	n/a	n/a	n/a
392.8028	0.95	COLOR_NAME	34	Incongruent	zielony	green	niebieski	blue	hit	n/a
393.7209	n/a	RESPONSE	n/a	n/a	n/a	n/a	n/a	n/a	n/a	green
393.7528	1.0167	ITI	n/a	n/a	n/a	n/a	n/a	n/a	n/a	n/a
394.7695	0.5167	FIXCROSS	n/a	n/a	n/a	n/a	n/a	n/a	n/a	n/a
395.2862	1.0166	COLOR_NAME	35	Neutral	niebieski	blue	Neutral	Neutral	hit	n/a
396.2749	n/a	RESPONSE	n/a	n/a	n/a	n/a	n/a	n/a	n/a	blue
396.3028	1.0167	ITI	n/a	n/a	n/a	n/a	n/a	n/a	n/a	n/a
397.3195	0.5167	FIXCROSS	n/a	n/a	n/a	n/a	n/a	n/a	n/a	n/a
397.8362	1.0834	COLOR_NAME	36	Incongruent	niebieski	blue	czerwony	red	hit	n/a
398.8929	n/a	RESPONSE	n/a	n/a	n/a	n/a	n/a	n/a	n/a	blue
398.9196	1.0166	ITI	n/a	n/a	n/a	n/a	n/a	n/a	n/a	n/a
399.9362	0.5167	FIXCROSS	n/a	n/a	n/a	n/a	n/a	n/a	n/a	n/a
400.4529	1.0333	COLOR_NAME	37	Neutral	zielony	green	Neutral	Neutral	hit	n/a
401.4628	n/a	RESPONSE	n/a	n/a	n/a	n/a	n/a	n/a	n/a	green
401.4862	1.0167	ITI	n/a	n/a	n/a	n/a	n/a	n/a	n/a	n/a
402.5029	0.5167	FIXCROSS	n/a	n/a	n/a	n/a	n/a	n/a	n/a	n/a
403.0196	1.0833	COLOR_NAME	38	Incongruent	czerwony	red	zielony	green	hit	n/a
404.0808	n/a	RESPONSE	n/a	n/a	n/a	n/a	n/a	n/a	n/a	red
404.1029	1.0167	ITI	n/a	n/a	n/a	n/a	n/a	n/a	n/a	n/a
405.1196	0.5167	FIXCROSS	n/a	n/a	n/a	n/a	n/a	n/a	n/a	n/a
405.6363	1.0167	COLOR_NAME	39	Incongruent	niebieski	blue	żółty	yellow	hit	n/a
406.6189	n/a	RESPONSE	n/a	n/a	n/a	n/a	n/a	n/a	n/a	blue
406.6529	1.0167	ITI	n/a	n/a	n/a	n/a	n/a	n/a	n/a	n/a
407.6696	0.5167	FIXCROSS	n/a	n/a	n/a	n/a	n/a	n/a	n/a	n/a
408.1863	0.95	COLOR_NAME	40	Neutral	żółty	yellow	Neutral	Neutral	hit	n/a
409.109	n/a	RESPONSE	n/a	n/a	n/a	n/a	n/a	n/a	n/a	yellow
409.1363	1.0167	ITI	n/a	n/a	n/a	n/a	n/a	n/a	n/a	n/a
410.153	0.5166	FIXCROSS	n/a	n/a	n/a	n/a	n/a	n/a	n/a	n/a
410.6696	0.9834	COLOR_NAME	41	Neutral	żółty	yellow	Neutral	Neutral	hit	n/a
411.6311	n/a	RESPONSE	n/a	n/a	n/a	n/a	n/a	n/a	n/a	yellow
411.653	1.0167	ITI	n/a	n/a	n/a	n/a	n/a	n/a	n/a	n/a
412.6697	0.5166	FIXCROSS	n/a	n/a	n/a	n/a	n/a	n/a	n/a	n/a
413.1863	0.75	COLOR_NAME	42	Incongruent	czerwony	red	zielony	green	hit	n/a
413.9138	n/a	RESPONSE	n/a	n/a	n/a	n/a	n/a	n/a	n/a	red
413.9363	1.0167	ITI	n/a	n/a	n/a	n/a	n/a	n/a	n/a	n/a
414.953	0.5167	FIXCROSS	n/a	n/a	n/a	n/a	n/a	n/a	n/a	n/a
415.4697	1.0	COLOR_NAME	43	Incongruent	żółty	yellow	niebieski	blue	hit	n/a
416.4359	n/a	RESPONSE	n/a	n/a	n/a	n/a	n/a	n/a	n/a	yellow
416.4697	1.0167	ITI	n/a	n/a	n/a	n/a	n/a	n/a	n/a	n/a
417.4864	0.5167	FIXCROSS	n/a	n/a	n/a	n/a	n/a	n/a	n/a	n/a
418.003	0.95	COLOR_NAME	44	Neutral	zielony	green	Neutral	Neutral	hit	n/a
418.9261	n/a	RESPONSE	n/a	n/a	n/a	n/a	n/a	n/a	n/a	green
418.953	1.0167	ITI	n/a	n/a	n/a	n/a	n/a	n/a	n/a	n/a
419.9697	0.5167	FIXCROSS	n/a	n/a	n/a	n/a	n/a	n/a	n/a	n/a
420.4864	0.9166	COLOR_NAME	45	Incongruent	zielony	green	żółty	yellow	hit	n/a
421.3844	n/a	RESPONSE	n/a	n/a	n/a	n/a	n/a	n/a	n/a	green
421.403	1.0167	ITI	n/a	n/a	n/a	n/a	n/a	n/a	n/a	n/a
422.4197	0.5166	FIXCROSS	n/a	n/a	n/a	n/a	n/a	n/a	n/a	n/a
422.9364	1.3167	COLOR_NAME	46	Incongruent	niebieski	blue	czerwony	red	hit	n/a
424.2257	n/a	RESPONSE	n/a	n/a	n/a	n/a	n/a	n/a	n/a	blue
424.2531	1.0167	ITI	n/a	n/a	n/a	n/a	n/a	n/a	n/a	n/a
425.2698	0.5166	FIXCROSS	n/a	n/a	n/a	n/a	n/a	n/a	n/a	n/a
425.7864	0.9667	COLOR_NAME	47	Incongruent	żółty	yellow	zielony	green	hit	n/a
426.7319	n/a	RESPONSE	n/a	n/a	n/a	n/a	n/a	n/a	n/a	yellow
426.7531	1.0167	ITI	n/a	n/a	n/a	n/a	n/a	n/a	n/a	n/a
427.7698	0.5167	FIXCROSS	n/a	n/a	n/a	n/a	n/a	n/a	n/a	n/a
428.2864	0.8333	COLOR_NAME	48	Neutral	żółty	yellow	Neutral	Neutral	hit	n/a
429.0945	n/a	RESPONSE	n/a	n/a	n/a	n/a	n/a	n/a	n/a	yellow
429.1198	1.0167	ITI	n/a	n/a	n/a	n/a	n/a	n/a	n/a	n/a
430.1364	0.5167	FIXCROSS	n/a	n/a	n/a	n/a	n/a	n/a	n/a	n/a
430.6531	1.0166	COLOR_NAME	49	Neutral	żółty	yellow	Neutral	Neutral	hit	n/a
431.6485	n/a	RESPONSE	n/a	n/a	n/a	n/a	n/a	n/a	n/a	yellow
431.6698	1.0167	ITI	n/a	n/a	n/a	n/a	n/a	n/a	n/a	n/a
432.6865	0.5167	FIXCROSS	n/a	n/a	n/a	n/a	n/a	n/a	n/a	n/a
433.2032	0.8333	COLOR_NAME	50	Incongruent	żółty	yellow	zielony	green	hit	n/a
434.0111	n/a	RESPONSE	n/a	n/a	n/a	n/a	n/a	n/a	n/a	yellow
434.0365	1.0166	ITI	n/a	n/a	n/a	n/a	n/a	n/a	n/a	n/a
435.0531	0.5167	FIXCROSS	n/a	n/a	n/a	n/a	n/a	n/a	n/a	n/a
435.5698	0.8167	COLOR_NAME	51	Incongruent	czerwony	red	żółty	yellow	hit	n/a
436.3575	n/a	RESPONSE	n/a	n/a	n/a	n/a	n/a	n/a	n/a	red
436.3865	1.0167	ITI	n/a	n/a	n/a	n/a	n/a	n/a	n/a	n/a
437.4032	0.5167	FIXCROSS	n/a	n/a	n/a	n/a	n/a	n/a	n/a	n/a
437.9199	0.9333	COLOR_NAME	52	Neutral	żółty	yellow	Neutral	Neutral	hit	n/a
438.8318	n/a	RESPONSE	n/a	n/a	n/a	n/a	n/a	n/a	n/a	yellow
438.8532	1.0166	ITI	n/a	n/a	n/a	n/a	n/a	n/a	n/a	n/a
439.8698	0.5167	FIXCROSS	n/a	n/a	n/a	n/a	n/a	n/a	n/a	n/a
440.3865	0.7166	COLOR_NAME	53	Neutral	żółty	yellow	Neutral	Neutral	hit	n/a
441.0826	n/a	RESPONSE	n/a	n/a	n/a	n/a	n/a	n/a	n/a	yellow
441.1032	1.0167	ITI	n/a	n/a	n/a	n/a	n/a	n/a	n/a	n/a
442.1199	0.5166	FIXCROSS	n/a	n/a	n/a	n/a	n/a	n/a	n/a	n/a
442.6365	0.9334	COLOR_NAME	54	Incongruent	niebieski	blue	zielony	green	hit	n/a
443.5408	n/a	RESPONSE	n/a	n/a	n/a	n/a	n/a	n/a	n/a	blue
443.5699	1.0167	ITI	n/a	n/a	n/a	n/a	n/a	n/a	n/a	n/a
444.5866	0.5167	FIXCROSS	n/a	n/a	n/a	n/a	n/a	n/a	n/a	n/a
445.1032	0.9	COLOR_NAME	55	Neutral	żółty	yellow	Neutral	Neutral	hit	n/a
445.9831	n/a	RESPONSE	n/a	n/a	n/a	n/a	n/a	n/a	n/a	yellow
446.0033	1.0167	ITI	n/a	n/a	n/a	n/a	n/a	n/a	n/a	n/a
447.0199	0.5167	FIXCROSS	n/a	n/a	n/a	n/a	n/a	n/a	n/a	n/a
447.5366	0.8333	COLOR_NAME	56	Neutral	zielony	green	Neutral	Neutral	hit	n/a
448.3456	n/a	RESPONSE	n/a	n/a	n/a	n/a	n/a	n/a	n/a	green
448.3699	1.0167	ITI	n/a	n/a	n/a	n/a	n/a	n/a	n/a	n/a
449.3866	0.5167	FIXCROSS	n/a	n/a	n/a	n/a	n/a	n/a	n/a	n/a
449.9033	1.15	COLOR_NAME	57	Incongruent	żółty	yellow	czerwony	red	hit	n/a
451.0273	n/a	RESPONSE	n/a	n/a	n/a	n/a	n/a	n/a	n/a	yellow
451.0533	1.0167	ITI	n/a	n/a	n/a	n/a	n/a	n/a	n/a	n/a
452.07	0.5167	FIXCROSS	n/a	n/a	n/a	n/a	n/a	n/a	n/a	n/a
452.5866	0.9167	COLOR_NAME	58	Neutral	zielony	green	Neutral	Neutral	hit	n/a
453.4856	n/a	RESPONSE	n/a	n/a	n/a	n/a	n/a	n/a	n/a	green
453.5033	1.0166	ITI	n/a	n/a	n/a	n/a	n/a	n/a	n/a	n/a
454.52	0.5167	FIXCROSS	n/a	n/a	n/a	n/a	n/a	n/a	n/a	n/a
455.0366	1.1167	COLOR_NAME	59	Incongruent	niebieski	blue	żółty	yellow	hit	n/a
456.1354	n/a	RESPONSE	n/a	n/a	n/a	n/a	n/a	n/a	n/a	blue
456.1533	1.0167	ITI	n/a	n/a	n/a	n/a	n/a	n/a	n/a	n/a
457.17	0.5167	FIXCROSS	n/a	n/a	n/a	n/a	n/a	n/a	n/a	n/a
457.6867	1.0833	COLOR_NAME	60	Neutral	niebieski	blue	Neutral	Neutral	hit	n/a
458.7373	n/a	RESPONSE	n/a	n/a	n/a	n/a	n/a	n/a	n/a	blue
458.77	1.0167	ITI	n/a	n/a	n/a	n/a	n/a	n/a	n/a	n/a
459.7867	0.5166	FIXCROSS	n/a	n/a	n/a	n/a	n/a	n/a	n/a	n/a
460.3033	0.9334	COLOR_NAME	61	Incongruent	zielony	green	niebieski	blue	hit	n/a
461.2115	n/a	RESPONSE	n/a	n/a	n/a	n/a	n/a	n/a	n/a	green
461.2367	1.0167	ITI	n/a	n/a	n/a	n/a	n/a	n/a	n/a	n/a
462.2534	0.5166	FIXCROSS	n/a	n/a	n/a	n/a	n/a	n/a	n/a	n/a
462.77	1.0667	COLOR_NAME	62	Incongruent	zielony	green	żółty	yellow	hit	n/a
463.8135	n/a	RESPONSE	n/a	n/a	n/a	n/a	n/a	n/a	n/a	green
463.8367	1.0167	ITI	n/a	n/a	n/a	n/a	n/a	n/a	n/a	n/a
464.8534	0.5167	FIXCROSS	n/a	n/a	n/a	n/a	n/a	n/a	n/a	n/a
465.3701	1.1833	COLOR_NAME	63	Incongruent	żółty	yellow	czerwony	red	hit	n/a
466.5271	n/a	RESPONSE	n/a	n/a	n/a	n/a	n/a	n/a	n/a	yellow
466.5534	1.0167	ITI	n/a	n/a	n/a	n/a	n/a	n/a	n/a	n/a
467.5701	0.5167	FIXCROSS	n/a	n/a	n/a	n/a	n/a	n/a	n/a	n/a
468.0868	1.0833	COLOR_NAME	64	Neutral	niebieski	blue	Neutral	Neutral	hit	n/a
469.1449	n/a	RESPONSE	n/a	n/a	n/a	n/a	n/a	n/a	n/a	blue
469.1701	1.0167	ITI	n/a	n/a	n/a	n/a	n/a	n/a	n/a	n/a
470.1868	0.5167	FIXCROSS	n/a	n/a	n/a	n/a	n/a	n/a	n/a	n/a
470.7034	0.9333	COLOR_NAME	65	Incongruent	niebieski	blue	zielony	green	hit	n/a
471.6033	n/a	RESPONSE	n/a	n/a	n/a	n/a	n/a	n/a	n/a	blue
471.6368	1.0167	ITI	n/a	n/a	n/a	n/a	n/a	n/a	n/a	n/a
472.6535	0.5167	FIXCROSS	n/a	n/a	n/a	n/a	n/a	n/a	n/a	n/a
473.1701	0.7834	COLOR_NAME	66	Incongruent	niebieski	blue	zielony	green	hit	n/a
473.9337	n/a	RESPONSE	n/a	n/a	n/a	n/a	n/a	n/a	n/a	blue
473.9535	1.0167	ITI	n/a	n/a	n/a	n/a	n/a	n/a	n/a	n/a
474.9701	0.5167	FIXCROSS	n/a	n/a	n/a	n/a	n/a	n/a	n/a	n/a
475.4868	0.8167	COLOR_NAME	67	Neutral	niebieski	blue	Neutral	Neutral	hit	n/a
476.2804	n/a	RESPONSE	n/a	n/a	n/a	n/a	n/a	n/a	n/a	blue
476.3035	1.0167	ITI	n/a	n/a	n/a	n/a	n/a	n/a	n/a	n/a
477.3202	0.5167	FIXCROSS	n/a	n/a	n/a	n/a	n/a	n/a	n/a	n/a
477.8368	0.7	COLOR_NAME	68	Neutral	niebieski	blue	Neutral	Neutral	hit	n/a
478.5152	n/a	RESPONSE	n/a	n/a	n/a	n/a	n/a	n/a	n/a	blue
478.5368	1.0167	ITI	n/a	n/a	n/a	n/a	n/a	n/a	n/a	n/a
479.5535	0.5167	FIXCROSS	n/a	n/a	n/a	n/a	n/a	n/a	n/a	n/a
480.0702	0.6333	COLOR_NAME	69	Neutral	czerwony	red	Neutral	Neutral	hit	n/a
480.6701	n/a	RESPONSE	n/a	n/a	n/a	n/a	n/a	n/a	n/a	red
480.7035	1.0167	ITI	n/a	n/a	n/a	n/a	n/a	n/a	n/a	n/a
481.7202	0.5167	FIXCROSS	n/a	n/a	n/a	n/a	n/a	n/a	n/a	n/a
482.2369	0.9333	COLOR_NAME	70	Neutral	żółty	yellow	Neutral	Neutral	hit	n/a
483.1443	n/a	RESPONSE	n/a	n/a	n/a	n/a	n/a	n/a	n/a	yellow
483.1702	1.0167	ITI	n/a	n/a	n/a	n/a	n/a	n/a	n/a	n/a
484.1869	0.5166	FIXCROSS	n/a	n/a	n/a	n/a	n/a	n/a	n/a	n/a
484.7035	0.75	COLOR_NAME	71	Incongruent	zielony	green	czerwony	red	hit	n/a
485.427	n/a	RESPONSE	n/a	n/a	n/a	n/a	n/a	n/a	n/a	green
485.4535	1.0167	ITI	n/a	n/a	n/a	n/a	n/a	n/a	n/a	n/a
486.4702	0.5167	FIXCROSS	n/a	n/a	n/a	n/a	n/a	n/a	n/a	n/a
486.9869	0.8	COLOR_NAME	72	Incongruent	czerwony	red	niebieski	blue	hit	n/a
487.7576	n/a	RESPONSE	n/a	n/a	n/a	n/a	n/a	n/a	n/a	red
487.7869	1.0333	ITI	n/a	n/a	n/a	n/a	n/a	n/a	n/a	n/a
491.2216	n/a	RESPONSE	n/a	n/a	n/a	n/a	n/a	n/a	n/a	n/a
