onset	duration	trial_type	trial_number	stroop_condition	stim_text(PL)	stim_text(eng)	stim_color(PL)	stim_color(eng)	response_type	response_color
0.0	n/a	RESPONSE	n/a	n/a	n/a	n/a	n/a	n/a	n/a	n/a
0.0646	1.0333	ITI	n/a	n/a	n/a	n/a	n/a	n/a	n/a	n/a
1.0979	0.5167	FIXCROSS	n/a	n/a	n/a	n/a	n/a	n/a	n/a	n/a
1.6146	1.5167	T_INK	1	Incongruent	żółty	yellow	czerwony	red	hit	n/a
3.0971	n/a	RESPONSE	n/a	n/a	n/a	n/a	n/a	n/a	n/a	red
3.1313	0.5167	FEEDBACK	n/a	n/a	n/a	n/a	n/a	n/a	n/a	n/a
3.6479	1.0166	ITI	n/a	n/a	n/a	n/a	n/a	n/a	n/a	n/a
4.6646	0.5167	FIXCROSS	n/a	n/a	n/a	n/a	n/a	n/a	n/a	n/a
5.1812	1.0334	T_INK	2	Neutral	xxxxxxxxx	xxxxxxxxx	czerwony	red	hit	n/a
6.1782	n/a	RESPONSE	n/a	n/a	n/a	n/a	n/a	n/a	n/a	red
6.2146	0.5167	FEEDBACK	n/a	n/a	n/a	n/a	n/a	n/a	n/a	n/a
6.7313	1.0167	ITI	n/a	n/a	n/a	n/a	n/a	n/a	n/a	n/a
7.7479	0.5167	FIXCROSS	n/a	n/a	n/a	n/a	n/a	n/a	n/a	n/a
8.2646	0.8166	T_INK	3	Neutral	xxxxxxxxx	xxxxxxxxx	żółty	yellow	hit	n/a
9.0518	n/a	RESPONSE	n/a	n/a	n/a	n/a	n/a	n/a	n/a	yellow
9.0813	0.5167	FEEDBACK	n/a	n/a	n/a	n/a	n/a	n/a	n/a	n/a
9.5979	1.0167	ITI	n/a	n/a	n/a	n/a	n/a	n/a	n/a	n/a
10.6146	0.5167	FIXCROSS	n/a	n/a	n/a	n/a	n/a	n/a	n/a	n/a
11.1313	0.7166	T_INK	4	Neutral	xxxxxxxx	xxxxxxxx	żółty	yellow	hit	n/a
11.8136	n/a	RESPONSE	n/a	n/a	n/a	n/a	n/a	n/a	n/a	yellow
11.848	0.5167	FEEDBACK	n/a	n/a	n/a	n/a	n/a	n/a	n/a	n/a
12.3647	1.0167	ITI	n/a	n/a	n/a	n/a	n/a	n/a	n/a	n/a
13.3813	0.5167	FIXCROSS	n/a	n/a	n/a	n/a	n/a	n/a	n/a	n/a
13.898	1.2333	T_INK	5	Incongruent	czerwony	red	zielony	green	hit	n/a
15.1022	n/a	RESPONSE	n/a	n/a	n/a	n/a	n/a	n/a	n/a	green
15.1314	0.5167	FEEDBACK	n/a	n/a	n/a	n/a	n/a	n/a	n/a	n/a
15.648	1.0167	ITI	n/a	n/a	n/a	n/a	n/a	n/a	n/a	n/a
16.6647	0.5166	FIXCROSS	n/a	n/a	n/a	n/a	n/a	n/a	n/a	n/a
17.1813	1.1834	T_INK	6	Incongruent	żółty	yellow	niebieski	blue	hit	n/a
18.327	n/a	RESPONSE	n/a	n/a	n/a	n/a	n/a	n/a	n/a	blue
18.3647	0.5167	FEEDBACK	n/a	n/a	n/a	n/a	n/a	n/a	n/a	n/a
18.8814	1.0166	ITI	n/a	n/a	n/a	n/a	n/a	n/a	n/a	n/a
19.898	0.5167	FIXCROSS	n/a	n/a	n/a	n/a	n/a	n/a	n/a	n/a
20.4147	1.2333	T_INK	7	Neutral	xxxxxxxxx	xxxxxxxxx	zielony	green	hit	n/a
21.6158	n/a	RESPONSE	n/a	n/a	n/a	n/a	n/a	n/a	n/a	green
21.648	0.5167	FEEDBACK	n/a	n/a	n/a	n/a	n/a	n/a	n/a	n/a
22.1647	1.0167	ITI	n/a	n/a	n/a	n/a	n/a	n/a	n/a	n/a
23.1814	0.5166	FIXCROSS	n/a	n/a	n/a	n/a	n/a	n/a	n/a	n/a
23.698	0.9334	T_INK	8	Incongruent	zielony	green	czerwony	red	hit	n/a
24.6011	n/a	RESPONSE	n/a	n/a	n/a	n/a	n/a	n/a	n/a	red
24.6314	0.5167	FEEDBACK	n/a	n/a	n/a	n/a	n/a	n/a	n/a	n/a
25.1481	1.0167	ITI	n/a	n/a	n/a	n/a	n/a	n/a	n/a	n/a
26.1648	0.5166	FIXCROSS	n/a	n/a	n/a	n/a	n/a	n/a	n/a	n/a
26.6814	0.6667	T_INK	9	Neutral	xxxxxxx	xxxxxxx	czerwony	red	hit	n/a
27.3151	n/a	RESPONSE	n/a	n/a	n/a	n/a	n/a	n/a	n/a	red
27.3481	0.5166	FEEDBACK	n/a	n/a	n/a	n/a	n/a	n/a	n/a	n/a
27.8647	1.0167	ITI	n/a	n/a	n/a	n/a	n/a	n/a	n/a	n/a
28.8814	0.5166	FIXCROSS	n/a	n/a	n/a	n/a	n/a	n/a	n/a	n/a
29.3981	1.25	T_INK	10	Incongruent	czerwony	red	niebieski	blue	hit	n/a
30.6197	n/a	RESPONSE	n/a	n/a	n/a	n/a	n/a	n/a	n/a	blue
30.6481	0.5167	FEEDBACK	n/a	n/a	n/a	n/a	n/a	n/a	n/a	n/a
31.1648	1.0167	ITI	n/a	n/a	n/a	n/a	n/a	n/a	n/a	n/a
32.1815	0.5167	FIXCROSS	n/a	n/a	n/a	n/a	n/a	n/a	n/a	n/a
32.6981	0.9667	T_INK	11	Neutral	xxxxx	xxxxx	zielony	green	hit	n/a
33.6369	n/a	RESPONSE	n/a	n/a	n/a	n/a	n/a	n/a	n/a	green
33.6648	0.5167	FEEDBACK	n/a	n/a	n/a	n/a	n/a	n/a	n/a	n/a
34.1815	1.0167	ITI	n/a	n/a	n/a	n/a	n/a	n/a	n/a	n/a
35.1982	0.5167	FIXCROSS	n/a	n/a	n/a	n/a	n/a	n/a	n/a	n/a
35.7148	0.95	T_INK	12	Neutral	xxxxxxx	xxxxxxx	żółty	yellow	hit	n/a
36.6382	n/a	RESPONSE	n/a	n/a	n/a	n/a	n/a	n/a	n/a	yellow
36.6648	0.5166	FEEDBACK	n/a	n/a	n/a	n/a	n/a	n/a	n/a	n/a
37.1815	1.0334	ITI	n/a	n/a	n/a	n/a	n/a	n/a	n/a	n/a
41.4595	n/a	RESPONSE	n/a	n/a	n/a	n/a	n/a	n/a	n/a	n/a
41.5149	1.0167	ITI	n/a	n/a	n/a	n/a	n/a	n/a	n/a	n/a
42.5316	0.5166	FIXCROSS	n/a	n/a	n/a	n/a	n/a	n/a	n/a	n/a
43.0482	2.9334	INK	1	Incongruent	żółty	yellow	zielony	green	hit	n/a
45.9615	n/a	RESPONSE	n/a	n/a	n/a	n/a	n/a	n/a	n/a	green
45.9816	1.0167	ITI	n/a	n/a	n/a	n/a	n/a	n/a	n/a	n/a
46.9982	0.5167	FIXCROSS	n/a	n/a	n/a	n/a	n/a	n/a	n/a	n/a
47.5149	1.0667	INK	2	Incongruent	zielony	green	niebieski	blue	hit	n/a
48.5637	n/a	RESPONSE	n/a	n/a	n/a	n/a	n/a	n/a	n/a	blue
48.5816	1.0166	ITI	n/a	n/a	n/a	n/a	n/a	n/a	n/a	n/a
49.5982	0.5167	FIXCROSS	n/a	n/a	n/a	n/a	n/a	n/a	n/a	n/a
50.1149	0.9	INK	3	Incongruent	żółty	yellow	niebieski	blue	hit	n/a
50.9902	n/a	RESPONSE	n/a	n/a	n/a	n/a	n/a	n/a	n/a	blue
51.0149	1.0167	ITI	n/a	n/a	n/a	n/a	n/a	n/a	n/a	n/a
52.0316	0.5167	FIXCROSS	n/a	n/a	n/a	n/a	n/a	n/a	n/a	n/a
52.5483	1.0	INK	4	Incongruent	zielony	green	żółty	yellow	hit	n/a
53.5285	n/a	RESPONSE	n/a	n/a	n/a	n/a	n/a	n/a	n/a	yellow
53.5483	1.0167	ITI	n/a	n/a	n/a	n/a	n/a	n/a	n/a	n/a
54.565	0.5167	FIXCROSS	n/a	n/a	n/a	n/a	n/a	n/a	n/a	n/a
55.0816	0.9	INK	5	Neutral	xxxxxxxx	xxxxxxxx	zielony	green	hit	n/a
55.9552	n/a	RESPONSE	n/a	n/a	n/a	n/a	n/a	n/a	n/a	green
55.9817	1.0167	ITI	n/a	n/a	n/a	n/a	n/a	n/a	n/a	n/a
56.9983	0.5167	FIXCROSS	n/a	n/a	n/a	n/a	n/a	n/a	n/a	n/a
57.515	0.7667	INK	6	Neutral	xxxxxxxxx	xxxxxxxxx	żółty	yellow	hit	n/a
58.2541	n/a	RESPONSE	n/a	n/a	n/a	n/a	n/a	n/a	n/a	yellow
58.2817	1.0167	ITI	n/a	n/a	n/a	n/a	n/a	n/a	n/a	n/a
59.2983	0.5167	FIXCROSS	n/a	n/a	n/a	n/a	n/a	n/a	n/a	n/a
59.815	0.7167	INK	7	Neutral	xxxxxxxxx	xxxxxxxxx	czerwony	red	hit	n/a
60.5051	n/a	RESPONSE	n/a	n/a	n/a	n/a	n/a	n/a	n/a	red
60.5317	1.0167	ITI	n/a	n/a	n/a	n/a	n/a	n/a	n/a	n/a
61.5484	0.5167	FIXCROSS	n/a	n/a	n/a	n/a	n/a	n/a	n/a	n/a
62.065	1.05	INK	8	Incongruent	czerwony	red	żółty	yellow	hit	n/a
63.0913	n/a	RESPONSE	n/a	n/a	n/a	n/a	n/a	n/a	n/a	yellow
63.115	1.0166	ITI	n/a	n/a	n/a	n/a	n/a	n/a	n/a	n/a
64.1317	0.5167	FIXCROSS	n/a	n/a	n/a	n/a	n/a	n/a	n/a	n/a
64.6484	1.05	INK	9	Neutral	xxxxx	xxxxx	czerwony	red	hit	n/a
65.6775	n/a	RESPONSE	n/a	n/a	n/a	n/a	n/a	n/a	n/a	red
65.6984	1.0167	ITI	n/a	n/a	n/a	n/a	n/a	n/a	n/a	n/a
66.7151	0.5167	FIXCROSS	n/a	n/a	n/a	n/a	n/a	n/a	n/a	n/a
67.2317	0.9166	INK	10	Incongruent	żółty	yellow	czerwony	red	hit	n/a
68.1201	n/a	RESPONSE	n/a	n/a	n/a	n/a	n/a	n/a	n/a	red
68.1484	1.0167	ITI	n/a	n/a	n/a	n/a	n/a	n/a	n/a	n/a
69.1651	0.5167	FIXCROSS	n/a	n/a	n/a	n/a	n/a	n/a	n/a	n/a
69.6818	1.0666	INK	11	Neutral	xxxxxxxx	xxxxxxxx	niebieski	blue	hit	n/a
70.7222	n/a	RESPONSE	n/a	n/a	n/a	n/a	n/a	n/a	n/a	blue
70.7484	1.0167	ITI	n/a	n/a	n/a	n/a	n/a	n/a	n/a	n/a
71.7651	0.5166	FIXCROSS	n/a	n/a	n/a	n/a	n/a	n/a	n/a	n/a
72.2817	0.8834	INK	12	Incongruent	niebieski	blue	żółty	yellow	hit	n/a
73.1328	n/a	RESPONSE	n/a	n/a	n/a	n/a	n/a	n/a	n/a	yellow
73.1651	1.0167	ITI	n/a	n/a	n/a	n/a	n/a	n/a	n/a	n/a
74.1818	0.5167	FIXCROSS	n/a	n/a	n/a	n/a	n/a	n/a	n/a	n/a
74.6985	1.0	INK	13	Neutral	xxxxxxxxx	xxxxxxxxx	zielony	green	hit	n/a
75.6711	n/a	RESPONSE	n/a	n/a	n/a	n/a	n/a	n/a	n/a	green
75.6985	1.0166	ITI	n/a	n/a	n/a	n/a	n/a	n/a	n/a	n/a
76.7151	0.5167	FIXCROSS	n/a	n/a	n/a	n/a	n/a	n/a	n/a	n/a
77.2318	0.8167	INK	14	Neutral	xxxxxxx	xxxxxxx	czerwony	red	hit	n/a
78.018	n/a	RESPONSE	n/a	n/a	n/a	n/a	n/a	n/a	n/a	red
78.0485	1.0167	ITI	n/a	n/a	n/a	n/a	n/a	n/a	n/a	n/a
79.0652	0.5167	FIXCROSS	n/a	n/a	n/a	n/a	n/a	n/a	n/a	n/a
79.5818	1.0	INK	15	Incongruent	żółty	yellow	niebieski	blue	hit	n/a
80.5563	n/a	RESPONSE	n/a	n/a	n/a	n/a	n/a	n/a	n/a	blue
80.5818	1.0167	ITI	n/a	n/a	n/a	n/a	n/a	n/a	n/a	n/a
81.5985	0.5167	FIXCROSS	n/a	n/a	n/a	n/a	n/a	n/a	n/a	n/a
82.1152	0.9	INK	16	Neutral	xxxxx	xxxxx	niebieski	blue	hit	n/a
82.9829	n/a	RESPONSE	n/a	n/a	n/a	n/a	n/a	n/a	n/a	blue
83.0152	1.0167	ITI	n/a	n/a	n/a	n/a	n/a	n/a	n/a	n/a
84.0319	0.5166	FIXCROSS	n/a	n/a	n/a	n/a	n/a	n/a	n/a	n/a
84.5485	0.9167	INK	17	Neutral	xxxxx	xxxxx	zielony	green	hit	n/a
85.4414	n/a	RESPONSE	n/a	n/a	n/a	n/a	n/a	n/a	n/a	green
85.4652	1.0167	ITI	n/a	n/a	n/a	n/a	n/a	n/a	n/a	n/a
86.4819	0.5167	FIXCROSS	n/a	n/a	n/a	n/a	n/a	n/a	n/a	n/a
86.9985	0.7333	INK	18	Neutral	xxxxxxxx	xxxxxxxx	zielony	green	hit	n/a
87.7084	n/a	RESPONSE	n/a	n/a	n/a	n/a	n/a	n/a	n/a	green
87.7319	1.0167	ITI	n/a	n/a	n/a	n/a	n/a	n/a	n/a	n/a
88.7486	0.5167	FIXCROSS	n/a	n/a	n/a	n/a	n/a	n/a	n/a	n/a
89.2652	0.8167	INK	19	Neutral	xxxxxxx	xxxxxxx	żółty	yellow	hit	n/a
90.0551	n/a	RESPONSE	n/a	n/a	n/a	n/a	n/a	n/a	n/a	yellow
90.0819	1.0167	ITI	n/a	n/a	n/a	n/a	n/a	n/a	n/a	n/a
91.0986	0.5167	FIXCROSS	n/a	n/a	n/a	n/a	n/a	n/a	n/a	n/a
91.6153	0.5667	INK	20	Neutral	xxxxxxxxx	xxxxxxxxx	żółty	yellow	hit	n/a
92.1624	n/a	RESPONSE	n/a	n/a	n/a	n/a	n/a	n/a	n/a	yellow
92.1819	1.0167	ITI	n/a	n/a	n/a	n/a	n/a	n/a	n/a	n/a
93.1986	0.5166	FIXCROSS	n/a	n/a	n/a	n/a	n/a	n/a	n/a	n/a
93.7152	0.8834	INK	21	Incongruent	żółty	yellow	zielony	green	hit	n/a
94.573	n/a	RESPONSE	n/a	n/a	n/a	n/a	n/a	n/a	n/a	green
94.5986	1.0167	ITI	n/a	n/a	n/a	n/a	n/a	n/a	n/a	n/a
95.6153	0.5167	FIXCROSS	n/a	n/a	n/a	n/a	n/a	n/a	n/a	n/a
96.1319	0.85	INK	22	Neutral	xxxxxxx	xxxxxxx	niebieski	blue	hit	n/a
96.9517	n/a	RESPONSE	n/a	n/a	n/a	n/a	n/a	n/a	n/a	blue
96.982	1.0167	ITI	n/a	n/a	n/a	n/a	n/a	n/a	n/a	n/a
97.9986	0.5166	FIXCROSS	n/a	n/a	n/a	n/a	n/a	n/a	n/a	n/a
98.5153	1.0334	INK	23	Incongruent	niebieski	blue	zielony	green	hit	n/a
99.522	n/a	RESPONSE	n/a	n/a	n/a	n/a	n/a	n/a	n/a	green
99.5486	1.0167	ITI	n/a	n/a	n/a	n/a	n/a	n/a	n/a	n/a
100.5653	0.5167	FIXCROSS	n/a	n/a	n/a	n/a	n/a	n/a	n/a	n/a
101.082	0.9167	INK	24	Incongruent	zielony	green	żółty	yellow	hit	n/a
101.9806	n/a	RESPONSE	n/a	n/a	n/a	n/a	n/a	n/a	n/a	yellow
101.9987	1.0166	ITI	n/a	n/a	n/a	n/a	n/a	n/a	n/a	n/a
103.0153	0.5167	FIXCROSS	n/a	n/a	n/a	n/a	n/a	n/a	n/a	n/a
103.532	0.8667	INK	25	Neutral	xxxxxxxx	xxxxxxxx	żółty	yellow	hit	n/a
104.3752	n/a	RESPONSE	n/a	n/a	n/a	n/a	n/a	n/a	n/a	yellow
104.3987	1.0167	ITI	n/a	n/a	n/a	n/a	n/a	n/a	n/a	n/a
105.4153	0.5167	FIXCROSS	n/a	n/a	n/a	n/a	n/a	n/a	n/a	n/a
105.932	0.9	INK	26	Neutral	xxxxxxx	xxxxxxx	czerwony	red	hit	n/a
106.8017	n/a	RESPONSE	n/a	n/a	n/a	n/a	n/a	n/a	n/a	red
106.832	1.0166	ITI	n/a	n/a	n/a	n/a	n/a	n/a	n/a	n/a
107.8487	0.5167	FIXCROSS	n/a	n/a	n/a	n/a	n/a	n/a	n/a	n/a
108.3654	0.8667	INK	27	Incongruent	niebieski	blue	żółty	yellow	hit	n/a
109.2125	n/a	RESPONSE	n/a	n/a	n/a	n/a	n/a	n/a	n/a	yellow
109.2321	1.0166	ITI	n/a	n/a	n/a	n/a	n/a	n/a	n/a	n/a
110.2487	0.5167	FIXCROSS	n/a	n/a	n/a	n/a	n/a	n/a	n/a	n/a
110.7654	0.85	INK	28	Incongruent	niebieski	blue	czerwony	red	hit	n/a
111.5911	n/a	RESPONSE	n/a	n/a	n/a	n/a	n/a	n/a	n/a	red
111.6154	1.0167	ITI	n/a	n/a	n/a	n/a	n/a	n/a	n/a	n/a
112.6321	0.5167	FIXCROSS	n/a	n/a	n/a	n/a	n/a	n/a	n/a	n/a
113.1487	0.9833	INK	29	Incongruent	zielony	green	czerwony	red	hit	n/a
114.0975	n/a	RESPONSE	n/a	n/a	n/a	n/a	n/a	n/a	n/a	red
114.1321	1.0167	ITI	n/a	n/a	n/a	n/a	n/a	n/a	n/a	n/a
115.1488	0.5167	FIXCROSS	n/a	n/a	n/a	n/a	n/a	n/a	n/a	n/a
115.6654	0.8833	INK	30	Neutral	xxxxxxx	xxxxxxx	czerwony	red	hit	n/a
116.5241	n/a	RESPONSE	n/a	n/a	n/a	n/a	n/a	n/a	n/a	red
116.5488	1.0167	ITI	n/a	n/a	n/a	n/a	n/a	n/a	n/a	n/a
117.5654	0.5167	FIXCROSS	n/a	n/a	n/a	n/a	n/a	n/a	n/a	n/a
118.0821	0.8	INK	31	Incongruent	żółty	yellow	czerwony	red	hit	n/a
118.8548	n/a	RESPONSE	n/a	n/a	n/a	n/a	n/a	n/a	n/a	red
118.8821	1.0167	ITI	n/a	n/a	n/a	n/a	n/a	n/a	n/a	n/a
119.8988	0.5167	FIXCROSS	n/a	n/a	n/a	n/a	n/a	n/a	n/a	n/a
120.4155	0.9833	INK	32	Neutral	xxxxx	xxxxx	niebieski	blue	hit	n/a
121.3772	n/a	RESPONSE	n/a	n/a	n/a	n/a	n/a	n/a	n/a	blue
121.3988	1.0167	ITI	n/a	n/a	n/a	n/a	n/a	n/a	n/a	n/a
122.4155	0.5167	FIXCROSS	n/a	n/a	n/a	n/a	n/a	n/a	n/a	n/a
122.9321	0.9	INK	33	Neutral	xxxxx	xxxxx	niebieski	blue	hit	n/a
123.8038	n/a	RESPONSE	n/a	n/a	n/a	n/a	n/a	n/a	n/a	blue
123.8322	1.0167	ITI	n/a	n/a	n/a	n/a	n/a	n/a	n/a	n/a
124.8488	0.5167	FIXCROSS	n/a	n/a	n/a	n/a	n/a	n/a	n/a	n/a
125.3655	1.2667	INK	34	Neutral	xxxxxxxxx	xxxxxxxxx	zielony	green	hit	n/a
126.6135	n/a	RESPONSE	n/a	n/a	n/a	n/a	n/a	n/a	n/a	green
126.6322	1.0166	ITI	n/a	n/a	n/a	n/a	n/a	n/a	n/a	n/a
127.6488	0.5167	FIXCROSS	n/a	n/a	n/a	n/a	n/a	n/a	n/a	n/a
128.1655	1.0667	INK	35	Incongruent	czerwony	red	niebieski	blue	hit	n/a
129.1997	n/a	RESPONSE	n/a	n/a	n/a	n/a	n/a	n/a	n/a	blue
129.2322	1.0166	ITI	n/a	n/a	n/a	n/a	n/a	n/a	n/a	n/a
130.2488	0.5167	FIXCROSS	n/a	n/a	n/a	n/a	n/a	n/a	n/a	n/a
130.7655	0.8334	INK	36	Incongruent	zielony	green	czerwony	red	hit	n/a
131.5784	n/a	RESPONSE	n/a	n/a	n/a	n/a	n/a	n/a	n/a	red
131.5989	1.0167	ITI	n/a	n/a	n/a	n/a	n/a	n/a	n/a	n/a
132.6155	0.5167	FIXCROSS	n/a	n/a	n/a	n/a	n/a	n/a	n/a	n/a
133.1322	0.8	INK	37	Incongruent	niebieski	blue	czerwony	red	hit	n/a
133.9093	n/a	RESPONSE	n/a	n/a	n/a	n/a	n/a	n/a	n/a	red
133.9322	1.0167	ITI	n/a	n/a	n/a	n/a	n/a	n/a	n/a	n/a
134.9489	0.5167	FIXCROSS	n/a	n/a	n/a	n/a	n/a	n/a	n/a	n/a
135.4656	1.1333	INK	38	Incongruent	zielony	green	niebieski	blue	hit	n/a
136.5754	n/a	RESPONSE	n/a	n/a	n/a	n/a	n/a	n/a	n/a	blue
136.5989	1.0167	ITI	n/a	n/a	n/a	n/a	n/a	n/a	n/a	n/a
137.6156	0.5167	FIXCROSS	n/a	n/a	n/a	n/a	n/a	n/a	n/a	n/a
138.1323	0.8833	INK	39	Incongruent	czerwony	red	żółty	yellow	hit	n/a
138.9859	n/a	RESPONSE	n/a	n/a	n/a	n/a	n/a	n/a	n/a	yellow
139.0156	1.0167	ITI	n/a	n/a	n/a	n/a	n/a	n/a	n/a	n/a
140.0323	0.5167	FIXCROSS	n/a	n/a	n/a	n/a	n/a	n/a	n/a	n/a
140.5489	0.8333	INK	40	Neutral	xxxxxxxxx	xxxxxxxxx	żółty	yellow	hit	n/a
141.3485	n/a	RESPONSE	n/a	n/a	n/a	n/a	n/a	n/a	n/a	yellow
141.3823	1.0167	ITI	n/a	n/a	n/a	n/a	n/a	n/a	n/a	n/a
142.399	0.5166	FIXCROSS	n/a	n/a	n/a	n/a	n/a	n/a	n/a	n/a
142.9156	1.1	INK	41	Incongruent	niebieski	blue	żółty	yellow	hit	n/a
143.9827	n/a	RESPONSE	n/a	n/a	n/a	n/a	n/a	n/a	n/a	yellow
144.0156	1.0167	ITI	n/a	n/a	n/a	n/a	n/a	n/a	n/a	n/a
145.0323	0.5167	FIXCROSS	n/a	n/a	n/a	n/a	n/a	n/a	n/a	n/a
145.549	0.9667	INK	42	Incongruent	niebieski	blue	czerwony	red	hit	n/a
146.4891	n/a	RESPONSE	n/a	n/a	n/a	n/a	n/a	n/a	n/a	red
146.5157	1.0166	ITI	n/a	n/a	n/a	n/a	n/a	n/a	n/a	n/a
147.5323	0.5167	FIXCROSS	n/a	n/a	n/a	n/a	n/a	n/a	n/a	n/a
148.049	1.0833	INK	43	Incongruent	żółty	yellow	zielony	green	hit	n/a
149.1072	n/a	RESPONSE	n/a	n/a	n/a	n/a	n/a	n/a	n/a	green
149.1323	1.0167	ITI	n/a	n/a	n/a	n/a	n/a	n/a	n/a	n/a
150.149	0.5167	FIXCROSS	n/a	n/a	n/a	n/a	n/a	n/a	n/a	n/a
150.6657	0.95	INK	44	Incongruent	zielony	green	czerwony	red	hit	n/a
151.5977	n/a	RESPONSE	n/a	n/a	n/a	n/a	n/a	n/a	n/a	red
151.6157	1.0166	ITI	n/a	n/a	n/a	n/a	n/a	n/a	n/a	n/a
152.6323	0.5167	FIXCROSS	n/a	n/a	n/a	n/a	n/a	n/a	n/a	n/a
153.149	0.8666	INK	45	Incongruent	żółty	yellow	czerwony	red	hit	n/a
153.9923	n/a	RESPONSE	n/a	n/a	n/a	n/a	n/a	n/a	n/a	red
154.0157	1.0167	ITI	n/a	n/a	n/a	n/a	n/a	n/a	n/a	n/a
155.0324	0.5167	FIXCROSS	n/a	n/a	n/a	n/a	n/a	n/a	n/a	n/a
155.549	0.9	INK	46	Neutral	xxxxxxx	xxxxxxx	żółty	yellow	hit	n/a
156.4189	n/a	RESPONSE	n/a	n/a	n/a	n/a	n/a	n/a	n/a	yellow
156.4491	1.0166	ITI	n/a	n/a	n/a	n/a	n/a	n/a	n/a	n/a
157.4657	0.5167	FIXCROSS	n/a	n/a	n/a	n/a	n/a	n/a	n/a	n/a
157.9824	1.2	INK	47	Incongruent	czerwony	red	niebieski	blue	hit	n/a
159.1647	n/a	RESPONSE	n/a	n/a	n/a	n/a	n/a	n/a	n/a	blue
159.1824	1.0167	ITI	n/a	n/a	n/a	n/a	n/a	n/a	n/a	n/a
160.1991	0.5167	FIXCROSS	n/a	n/a	n/a	n/a	n/a	n/a	n/a	n/a
160.7157	1.0667	INK	48	Incongruent	czerwony	red	żółty	yellow	hit	n/a
161.7511	n/a	RESPONSE	n/a	n/a	n/a	n/a	n/a	n/a	n/a	yellow
161.7824	1.0167	ITI	n/a	n/a	n/a	n/a	n/a	n/a	n/a	n/a
162.7991	0.5167	FIXCROSS	n/a	n/a	n/a	n/a	n/a	n/a	n/a	n/a
163.3158	0.7833	INK	49	Neutral	xxxxxxxxx	xxxxxxxxx	czerwony	red	hit	n/a
164.0658	n/a	RESPONSE	n/a	n/a	n/a	n/a	n/a	n/a	n/a	red
164.0991	1.0167	ITI	n/a	n/a	n/a	n/a	n/a	n/a	n/a	n/a
165.1158	0.5167	FIXCROSS	n/a	n/a	n/a	n/a	n/a	n/a	n/a	n/a
165.6325	1.0834	INK	50	Neutral	xxxxxxxx	xxxxxxxx	zielony	green	hit	n/a
166.684	n/a	RESPONSE	n/a	n/a	n/a	n/a	n/a	n/a	n/a	green
166.7158	1.0166	ITI	n/a	n/a	n/a	n/a	n/a	n/a	n/a	n/a
167.7325	0.5167	FIXCROSS	n/a	n/a	n/a	n/a	n/a	n/a	n/a	n/a
168.2491	0.9666	INK	51	Incongruent	czerwony	red	zielony	green	hit	n/a
169.1904	n/a	RESPONSE	n/a	n/a	n/a	n/a	n/a	n/a	n/a	green
169.2158	1.0167	ITI	n/a	n/a	n/a	n/a	n/a	n/a	n/a	n/a
170.2325	0.5166	FIXCROSS	n/a	n/a	n/a	n/a	n/a	n/a	n/a	n/a
170.7491	1.15	INK	52	Incongruent	żółty	yellow	niebieski	blue	hit	n/a
171.8725	n/a	RESPONSE	n/a	n/a	n/a	n/a	n/a	n/a	n/a	blue
171.8991	1.0167	ITI	n/a	n/a	n/a	n/a	n/a	n/a	n/a	n/a
172.9159	0.5167	FIXCROSS	n/a	n/a	n/a	n/a	n/a	n/a	n/a	n/a
173.4325	0.9666	INK	53	Neutral	xxxxx	xxxxx	zielony	green	hit	n/a
174.3789	n/a	RESPONSE	n/a	n/a	n/a	n/a	n/a	n/a	n/a	green
174.3992	1.0167	ITI	n/a	n/a	n/a	n/a	n/a	n/a	n/a	n/a
175.4159	0.5166	FIXCROSS	n/a	n/a	n/a	n/a	n/a	n/a	n/a	n/a
175.9325	0.7834	INK	54	Neutral	xxxxxxxxx	xxxxxxxxx	czerwony	red	hit	n/a
176.6938	n/a	RESPONSE	n/a	n/a	n/a	n/a	n/a	n/a	n/a	red
176.7159	1.0167	ITI	n/a	n/a	n/a	n/a	n/a	n/a	n/a	n/a
177.7326	0.5166	FIXCROSS	n/a	n/a	n/a	n/a	n/a	n/a	n/a	n/a
178.2492	1.0834	INK	55	Incongruent	czerwony	red	zielony	green	hit	n/a
179.3119	n/a	RESPONSE	n/a	n/a	n/a	n/a	n/a	n/a	n/a	green
179.3326	1.0166	ITI	n/a	n/a	n/a	n/a	n/a	n/a	n/a	n/a
180.3492	0.5167	FIXCROSS	n/a	n/a	n/a	n/a	n/a	n/a	n/a	n/a
180.8659	1.2	INK	56	Incongruent	czerwony	red	niebieski	blue	hit	n/a
182.0418	n/a	RESPONSE	n/a	n/a	n/a	n/a	n/a	n/a	n/a	blue
182.0659	1.0167	ITI	n/a	n/a	n/a	n/a	n/a	n/a	n/a	n/a
183.0826	0.5166	FIXCROSS	n/a	n/a	n/a	n/a	n/a	n/a	n/a	n/a
183.5992	0.9167	INK	57	Neutral	xxxxxxxxx	xxxxxxxxx	zielony	green	hit	n/a
184.4843	n/a	RESPONSE	n/a	n/a	n/a	n/a	n/a	n/a	n/a	green
184.5159	1.0167	ITI	n/a	n/a	n/a	n/a	n/a	n/a	n/a	n/a
185.5326	0.5166	FIXCROSS	n/a	n/a	n/a	n/a	n/a	n/a	n/a	n/a
186.0492	0.9501	INK	58	Neutral	xxxxxxx	xxxxxxx	niebieski	blue	hit	n/a
186.9748	n/a	RESPONSE	n/a	n/a	n/a	n/a	n/a	n/a	n/a	blue
186.9993	1.0166	ITI	n/a	n/a	n/a	n/a	n/a	n/a	n/a	n/a
188.0159	0.5167	FIXCROSS	n/a	n/a	n/a	n/a	n/a	n/a	n/a	n/a
188.5326	1.0	INK	59	Neutral	xxxxxxx	xxxxxxx	niebieski	blue	hit	n/a
189.5131	n/a	RESPONSE	n/a	n/a	n/a	n/a	n/a	n/a	n/a	blue
189.5326	1.0167	ITI	n/a	n/a	n/a	n/a	n/a	n/a	n/a	n/a
190.5493	0.5167	FIXCROSS	n/a	n/a	n/a	n/a	n/a	n/a	n/a	n/a
191.066	0.7833	INK	60	Neutral	xxxxxxx	xxxxxxx	żółty	yellow	hit	n/a
191.8279	n/a	RESPONSE	n/a	n/a	n/a	n/a	n/a	n/a	n/a	yellow
191.8493	1.0166	ITI	n/a	n/a	n/a	n/a	n/a	n/a	n/a	n/a
192.866	0.5167	FIXCROSS	n/a	n/a	n/a	n/a	n/a	n/a	n/a	n/a
193.3827	0.6166	INK	61	Incongruent	zielony	green	żółty	yellow	hit	n/a
193.9672	n/a	RESPONSE	n/a	n/a	n/a	n/a	n/a	n/a	n/a	yellow
193.9993	1.0167	ITI	n/a	n/a	n/a	n/a	n/a	n/a	n/a	n/a
195.016	0.5167	FIXCROSS	n/a	n/a	n/a	n/a	n/a	n/a	n/a	n/a
195.5327	1.0167	INK	62	Neutral	xxxxxxxx	xxxxxxxx	niebieski	blue	hit	n/a
196.5215	n/a	RESPONSE	n/a	n/a	n/a	n/a	n/a	n/a	n/a	blue
196.5494	1.0167	ITI	n/a	n/a	n/a	n/a	n/a	n/a	n/a	n/a
197.566	0.5166	FIXCROSS	n/a	n/a	n/a	n/a	n/a	n/a	n/a	n/a
198.0827	0.8833	INK	63	Incongruent	czerwony	red	zielony	green	hit	n/a
198.9321	n/a	RESPONSE	n/a	n/a	n/a	n/a	n/a	n/a	n/a	green
198.966	1.0167	ITI	n/a	n/a	n/a	n/a	n/a	n/a	n/a	n/a
199.9827	0.5166	FIXCROSS	n/a	n/a	n/a	n/a	n/a	n/a	n/a	n/a
200.4994	0.7834	INK	64	Neutral	xxxxxxxx	xxxxxxxx	żółty	yellow	hit	n/a
201.263	n/a	RESPONSE	n/a	n/a	n/a	n/a	n/a	n/a	n/a	yellow
201.2827	1.0166	ITI	n/a	n/a	n/a	n/a	n/a	n/a	n/a	n/a
202.2994	0.5167	FIXCROSS	n/a	n/a	n/a	n/a	n/a	n/a	n/a	n/a
202.8161	0.7	INK	65	Neutral	xxxxx	xxxxx	czerwony	red	hit	n/a
203.498	n/a	RESPONSE	n/a	n/a	n/a	n/a	n/a	n/a	n/a	red
203.5161	1.0167	ITI	n/a	n/a	n/a	n/a	n/a	n/a	n/a	n/a
204.5327	0.5167	FIXCROSS	n/a	n/a	n/a	n/a	n/a	n/a	n/a	n/a
205.0494	1.05	INK	66	Neutral	xxxxxxxx	xxxxxxxx	niebieski	blue	hit	n/a
206.0682	n/a	RESPONSE	n/a	n/a	n/a	n/a	n/a	n/a	n/a	blue
206.0994	1.0166	ITI	n/a	n/a	n/a	n/a	n/a	n/a	n/a	n/a
207.1161	0.5167	FIXCROSS	n/a	n/a	n/a	n/a	n/a	n/a	n/a	n/a
207.6328	1.0333	INK	67	Incongruent	niebieski	blue	zielony	green	hit	n/a
208.6385	n/a	RESPONSE	n/a	n/a	n/a	n/a	n/a	n/a	n/a	green
208.6661	1.0167	ITI	n/a	n/a	n/a	n/a	n/a	n/a	n/a	n/a
209.6828	0.5167	FIXCROSS	n/a	n/a	n/a	n/a	n/a	n/a	n/a	n/a
210.1995	1.1667	INK	68	Neutral	xxxxx	xxxxx	zielony	green	hit	n/a
211.3365	n/a	RESPONSE	n/a	n/a	n/a	n/a	n/a	n/a	n/a	green
211.3661	1.0166	ITI	n/a	n/a	n/a	n/a	n/a	n/a	n/a	n/a
212.3828	0.5167	FIXCROSS	n/a	n/a	n/a	n/a	n/a	n/a	n/a	n/a
212.8994	0.8833	INK	69	Neutral	xxxxx	xxxxx	czerwony	red	hit	n/a
213.7631	n/a	RESPONSE	n/a	n/a	n/a	n/a	n/a	n/a	n/a	red
213.7828	1.0167	ITI	n/a	n/a	n/a	n/a	n/a	n/a	n/a	n/a
214.7995	0.5167	FIXCROSS	n/a	n/a	n/a	n/a	n/a	n/a	n/a	n/a
215.3162	1.1167	INK	70	Incongruent	zielony	green	niebieski	blue	hit	n/a
216.4132	n/a	RESPONSE	n/a	n/a	n/a	n/a	n/a	n/a	n/a	blue
216.4328	1.0167	ITI	n/a	n/a	n/a	n/a	n/a	n/a	n/a	n/a
217.4495	0.5167	FIXCROSS	n/a	n/a	n/a	n/a	n/a	n/a	n/a	n/a
217.9662	0.9333	INK	71	Incongruent	niebieski	blue	zielony	green	hit	n/a
218.8716	n/a	RESPONSE	n/a	n/a	n/a	n/a	n/a	n/a	n/a	green
218.8995	1.0167	ITI	n/a	n/a	n/a	n/a	n/a	n/a	n/a	n/a
219.9162	0.5167	FIXCROSS	n/a	n/a	n/a	n/a	n/a	n/a	n/a	n/a
220.4329	0.85	INK	72	Neutral	xxxxxxxx	xxxxxxxx	żółty	yellow	hit	n/a
221.2504	n/a	RESPONSE	n/a	n/a	n/a	n/a	n/a	n/a	n/a	yellow
221.2829	1.0833	ITI	n/a	n/a	n/a	n/a	n/a	n/a	n/a	n/a
277.9874	n/a	RESPONSE	n/a	n/a	n/a	n/a	n/a	n/a	n/a	n/a
278.0499	1.0167	ITI	n/a	n/a	n/a	n/a	n/a	n/a	n/a	n/a
279.0666	0.5167	FIXCROSS	n/a	n/a	n/a	n/a	n/a	n/a	n/a	n/a
279.5833	1.6	T_COLOR_NAME	1	Neutral	żółty	yellow	Neutral	Neutral	hit	n/a
281.1484	n/a	RESPONSE	n/a	n/a	n/a	n/a	n/a	n/a	n/a	yellow
281.1833	0.5167	FEEDBACK	n/a	n/a	n/a	n/a	n/a	n/a	n/a	n/a
281.7	1.0167	ITI	n/a	n/a	n/a	n/a	n/a	n/a	n/a	n/a
282.7166	0.5166	FIXCROSS	n/a	n/a	n/a	n/a	n/a	n/a	n/a	n/a
283.2333	1.3834	T_COLOR_NAME	2	Neutral	niebieski	blue	Neutral	Neutral	hit	n/a
284.5808	n/a	RESPONSE	n/a	n/a	n/a	n/a	n/a	n/a	n/a	blue
284.6166	0.5167	FEEDBACK	n/a	n/a	n/a	n/a	n/a	n/a	n/a	n/a
285.1333	1.0167	ITI	n/a	n/a	n/a	n/a	n/a	n/a	n/a	n/a
286.15	0.5166	FIXCROSS	n/a	n/a	n/a	n/a	n/a	n/a	n/a	n/a
286.6666	1.1	T_COLOR_NAME	3	Incongruent	czerwony	red	niebieski	blue	hit	n/a
287.7417	n/a	RESPONSE	n/a	n/a	n/a	n/a	n/a	n/a	n/a	red
287.7667	0.5167	FEEDBACK	n/a	n/a	n/a	n/a	n/a	n/a	n/a	n/a
288.2834	1.0166	ITI	n/a	n/a	n/a	n/a	n/a	n/a	n/a	n/a
289.3	0.5167	FIXCROSS	n/a	n/a	n/a	n/a	n/a	n/a	n/a	n/a
289.8167	1.4167	T_COLOR_NAME	4	Incongruent	zielony	green	czerwony	red	hit	n/a
291.2059	n/a	RESPONSE	n/a	n/a	n/a	n/a	n/a	n/a	n/a	green
291.2334	0.5167	FEEDBACK	n/a	n/a	n/a	n/a	n/a	n/a	n/a	n/a
291.7501	1.0167	ITI	n/a	n/a	n/a	n/a	n/a	n/a	n/a	n/a
292.7667	0.5167	FIXCROSS	n/a	n/a	n/a	n/a	n/a	n/a	n/a	n/a
293.2834	1.15	T_COLOR_NAME	5	Neutral	niebieski	blue	Neutral	Neutral	hit	n/a
294.3989	n/a	RESPONSE	n/a	n/a	n/a	n/a	n/a	n/a	n/a	blue
294.4334	0.5167	FEEDBACK	n/a	n/a	n/a	n/a	n/a	n/a	n/a	n/a
294.9501	1.0167	ITI	n/a	n/a	n/a	n/a	n/a	n/a	n/a	n/a
295.9667	0.5167	FIXCROSS	n/a	n/a	n/a	n/a	n/a	n/a	n/a	n/a
296.4834	1.0834	T_COLOR_NAME	6	Incongruent	żółty	yellow	czerwony	red	hit	n/a
297.5438	n/a	RESPONSE	n/a	n/a	n/a	n/a	n/a	n/a	n/a	yellow
297.5668	0.5167	FEEDBACK	n/a	n/a	n/a	n/a	n/a	n/a	n/a	n/a
298.0834	1.0167	ITI	n/a	n/a	n/a	n/a	n/a	n/a	n/a	n/a
299.1001	0.5167	FIXCROSS	n/a	n/a	n/a	n/a	n/a	n/a	n/a	n/a
299.6168	1.0834	T_COLOR_NAME	7	Neutral	zielony	green	Neutral	Neutral	hit	n/a
300.6728	n/a	RESPONSE	n/a	n/a	n/a	n/a	n/a	n/a	n/a	green
300.7001	0.5167	FEEDBACK	n/a	n/a	n/a	n/a	n/a	n/a	n/a	n/a
301.2168	1.0167	ITI	n/a	n/a	n/a	n/a	n/a	n/a	n/a	n/a
302.2335	0.5166	FIXCROSS	n/a	n/a	n/a	n/a	n/a	n/a	n/a	n/a
302.7501	1.15	T_COLOR_NAME	8	Neutral	zielony	green	Neutral	Neutral	hit	n/a
303.8656	n/a	RESPONSE	n/a	n/a	n/a	n/a	n/a	n/a	n/a	green
303.9001	0.5166	FEEDBACK	n/a	n/a	n/a	n/a	n/a	n/a	n/a	n/a
304.4168	1.0167	ITI	n/a	n/a	n/a	n/a	n/a	n/a	n/a	n/a
305.4335	0.5167	FIXCROSS	n/a	n/a	n/a	n/a	n/a	n/a	n/a	n/a
305.9502	1.0167	T_COLOR_NAME	9	Incongruent	żółty	yellow	niebieski	blue	hit	n/a
306.9468	n/a	RESPONSE	n/a	n/a	n/a	n/a	n/a	n/a	n/a	yellow
306.9668	0.5167	FEEDBACK	n/a	n/a	n/a	n/a	n/a	n/a	n/a	n/a
307.4835	1.0167	ITI	n/a	n/a	n/a	n/a	n/a	n/a	n/a	n/a
308.5002	0.5167	FIXCROSS	n/a	n/a	n/a	n/a	n/a	n/a	n/a	n/a
309.0168	1.0	T_COLOR_NAME	10	Neutral	czerwony	red	Neutral	Neutral	hit	n/a
309.9961	n/a	RESPONSE	n/a	n/a	n/a	n/a	n/a	n/a	n/a	red
310.0168	0.5167	FEEDBACK	n/a	n/a	n/a	n/a	n/a	n/a	n/a	n/a
310.5335	1.0167	ITI	n/a	n/a	n/a	n/a	n/a	n/a	n/a	n/a
311.5502	0.5167	FIXCROSS	n/a	n/a	n/a	n/a	n/a	n/a	n/a	n/a
312.0669	1.2333	T_COLOR_NAME	11	Neutral	niebieski	blue	Neutral	Neutral	hit	n/a
313.2686	n/a	RESPONSE	n/a	n/a	n/a	n/a	n/a	n/a	n/a	blue
313.3002	0.5167	FEEDBACK	n/a	n/a	n/a	n/a	n/a	n/a	n/a	n/a
313.8169	1.0167	ITI	n/a	n/a	n/a	n/a	n/a	n/a	n/a	n/a
314.8336	0.5167	FIXCROSS	n/a	n/a	n/a	n/a	n/a	n/a	n/a	n/a
315.3502	1.2167	T_COLOR_NAME	12	Incongruent	czerwony	red	zielony	green	hit	n/a
316.5413	n/a	RESPONSE	n/a	n/a	n/a	n/a	n/a	n/a	n/a	red
316.5669	0.5166	FEEDBACK	n/a	n/a	n/a	n/a	n/a	n/a	n/a	n/a
317.0835	1.0334	ITI	n/a	n/a	n/a	n/a	n/a	n/a	n/a	n/a
323.0389	n/a	RESPONSE	n/a	n/a	n/a	n/a	n/a	n/a	n/a	n/a
323.1002	1.0167	ITI	n/a	n/a	n/a	n/a	n/a	n/a	n/a	n/a
324.117	0.5166	FIXCROSS	n/a	n/a	n/a	n/a	n/a	n/a	n/a	n/a
324.6336	1.2834	COLOR_NAME	1	Neutral	zielony	green	Neutral	Neutral	hit	n/a
325.8965	n/a	RESPONSE	n/a	n/a	n/a	n/a	n/a	n/a	n/a	green
325.917	1.0167	ITI	n/a	n/a	n/a	n/a	n/a	n/a	n/a	n/a
326.9336	0.5167	FIXCROSS	n/a	n/a	n/a	n/a	n/a	n/a	n/a	n/a
327.4503	0.9833	COLOR_NAME	2	Neutral	czerwony	red	Neutral	Neutral	hit	n/a
328.4028	n/a	RESPONSE	n/a	n/a	n/a	n/a	n/a	n/a	n/a	red
328.4336	1.0167	ITI	n/a	n/a	n/a	n/a	n/a	n/a	n/a	n/a
329.4503	0.5166	FIXCROSS	n/a	n/a	n/a	n/a	n/a	n/a	n/a	n/a
329.967	1.3667	COLOR_NAME	3	Neutral	niebieski	blue	Neutral	Neutral	hit	n/a
331.3084	n/a	RESPONSE	n/a	n/a	n/a	n/a	n/a	n/a	n/a	blue
331.3337	1.0167	ITI	n/a	n/a	n/a	n/a	n/a	n/a	n/a	n/a
332.3503	0.5167	FIXCROSS	n/a	n/a	n/a	n/a	n/a	n/a	n/a	n/a
332.867	0.9333	COLOR_NAME	4	Incongruent	niebieski	blue	zielony	green	hit	n/a
333.7669	n/a	RESPONSE	n/a	n/a	n/a	n/a	n/a	n/a	n/a	blue
333.8004	1.0167	ITI	n/a	n/a	n/a	n/a	n/a	n/a	n/a	n/a
334.817	0.5167	FIXCROSS	n/a	n/a	n/a	n/a	n/a	n/a	n/a	n/a
335.3337	1.15	COLOR_NAME	5	Neutral	zielony	green	Neutral	Neutral	hit	n/a
336.465	n/a	RESPONSE	n/a	n/a	n/a	n/a	n/a	n/a	n/a	green
336.4837	1.0167	ITI	n/a	n/a	n/a	n/a	n/a	n/a	n/a	n/a
337.5004	0.5167	FIXCROSS	n/a	n/a	n/a	n/a	n/a	n/a	n/a	n/a
338.017	0.8667	COLOR_NAME	6	Incongruent	zielony	green	czerwony	red	hit	n/a
338.8596	n/a	RESPONSE	n/a	n/a	n/a	n/a	n/a	n/a	n/a	green
338.8837	1.0167	ITI	n/a	n/a	n/a	n/a	n/a	n/a	n/a	n/a
339.9004	0.5167	FIXCROSS	n/a	n/a	n/a	n/a	n/a	n/a	n/a	n/a
340.4171	1.0667	COLOR_NAME	7	Neutral	czerwony	red	Neutral	Neutral	hit	n/a
341.4618	n/a	RESPONSE	n/a	n/a	n/a	n/a	n/a	n/a	n/a	red
341.4837	1.0167	ITI	n/a	n/a	n/a	n/a	n/a	n/a	n/a	n/a
342.5004	0.5167	FIXCROSS	n/a	n/a	n/a	n/a	n/a	n/a	n/a	n/a
343.0171	0.6166	COLOR_NAME	8	Incongruent	czerwony	red	niebieski	blue	hit	n/a
343.601	n/a	RESPONSE	n/a	n/a	n/a	n/a	n/a	n/a	n/a	red
343.6337	1.0167	ITI	n/a	n/a	n/a	n/a	n/a	n/a	n/a	n/a
344.6504	0.5167	FIXCROSS	n/a	n/a	n/a	n/a	n/a	n/a	n/a	n/a
345.1671	1.0667	COLOR_NAME	9	Incongruent	żółty	yellow	czerwony	red	hit	n/a
346.2032	n/a	RESPONSE	n/a	n/a	n/a	n/a	n/a	n/a	n/a	yellow
346.2338	1.0167	ITI	n/a	n/a	n/a	n/a	n/a	n/a	n/a	n/a
347.2505	0.5167	FIXCROSS	n/a	n/a	n/a	n/a	n/a	n/a	n/a	n/a
347.7671	1.25	COLOR_NAME	10	Incongruent	czerwony	red	żółty	yellow	hit	n/a
348.997	n/a	RESPONSE	n/a	n/a	n/a	n/a	n/a	n/a	n/a	red
349.0171	1.0167	ITI	n/a	n/a	n/a	n/a	n/a	n/a	n/a	n/a
350.0338	0.5167	FIXCROSS	n/a	n/a	n/a	n/a	n/a	n/a	n/a	n/a
350.5505	0.85	COLOR_NAME	11	Incongruent	czerwony	red	niebieski	blue	hit	n/a
351.3756	n/a	RESPONSE	n/a	n/a	n/a	n/a	n/a	n/a	n/a	red
351.4005	1.0167	ITI	n/a	n/a	n/a	n/a	n/a	n/a	n/a	n/a
352.4172	0.5167	FIXCROSS	n/a	n/a	n/a	n/a	n/a	n/a	n/a	n/a
352.9338	1.3333	COLOR_NAME	12	Incongruent	zielony	green	żółty	yellow	hit	n/a
354.2332	n/a	RESPONSE	n/a	n/a	n/a	n/a	n/a	n/a	n/a	green
354.2671	1.0167	ITI	n/a	n/a	n/a	n/a	n/a	n/a	n/a	n/a
355.2838	0.5167	FIXCROSS	n/a	n/a	n/a	n/a	n/a	n/a	n/a	n/a
355.8005	1.2333	COLOR_NAME	13	Incongruent	niebieski	blue	czerwony	red	hit	n/a
357.011	n/a	RESPONSE	n/a	n/a	n/a	n/a	n/a	n/a	n/a	blue
357.0339	1.0167	ITI	n/a	n/a	n/a	n/a	n/a	n/a	n/a	n/a
358.0505	0.5167	FIXCROSS	n/a	n/a	n/a	n/a	n/a	n/a	n/a	n/a
358.5672	1.2666	COLOR_NAME	14	Incongruent	zielony	green	czerwony	red	hit	n/a
359.8047	n/a	RESPONSE	n/a	n/a	n/a	n/a	n/a	n/a	n/a	green
359.8338	1.0167	ITI	n/a	n/a	n/a	n/a	n/a	n/a	n/a	n/a
360.8506	0.5167	FIXCROSS	n/a	n/a	n/a	n/a	n/a	n/a	n/a	n/a
361.3672	1.3	COLOR_NAME	15	Neutral	niebieski	blue	Neutral	Neutral	hit	n/a
362.6465	n/a	RESPONSE	n/a	n/a	n/a	n/a	n/a	n/a	n/a	blue
362.6672	1.0166	ITI	n/a	n/a	n/a	n/a	n/a	n/a	n/a	n/a
363.6839	0.5167	FIXCROSS	n/a	n/a	n/a	n/a	n/a	n/a	n/a	n/a
364.2006	1.1333	COLOR_NAME	16	Neutral	żółty	yellow	Neutral	Neutral	hit	n/a
365.3124	n/a	RESPONSE	n/a	n/a	n/a	n/a	n/a	n/a	n/a	yellow
365.3339	1.0167	ITI	n/a	n/a	n/a	n/a	n/a	n/a	n/a	n/a
366.3506	0.5167	FIXCROSS	n/a	n/a	n/a	n/a	n/a	n/a	n/a	n/a
366.8673	0.9	COLOR_NAME	17	Incongruent	żółty	yellow	niebieski	blue	hit	n/a
367.739	n/a	RESPONSE	n/a	n/a	n/a	n/a	n/a	n/a	n/a	yellow
367.7673	1.0167	ITI	n/a	n/a	n/a	n/a	n/a	n/a	n/a	n/a
368.7839	0.5167	FIXCROSS	n/a	n/a	n/a	n/a	n/a	n/a	n/a	n/a
369.3006	1.15	COLOR_NAME	18	Incongruent	zielony	green	żółty	yellow	hit	n/a
370.4211	n/a	RESPONSE	n/a	n/a	n/a	n/a	n/a	n/a	n/a	green
370.4506	1.0167	ITI	n/a	n/a	n/a	n/a	n/a	n/a	n/a	n/a
371.4673	0.5167	FIXCROSS	n/a	n/a	n/a	n/a	n/a	n/a	n/a	n/a
371.984	0.8667	COLOR_NAME	19	Neutral	czerwony	red	Neutral	Neutral	hit	n/a
372.8317	n/a	RESPONSE	n/a	n/a	n/a	n/a	n/a	n/a	n/a	red
372.8506	1.0167	ITI	n/a	n/a	n/a	n/a	n/a	n/a	n/a	n/a
373.8673	0.5167	FIXCROSS	n/a	n/a	n/a	n/a	n/a	n/a	n/a	n/a
374.384	1.0	COLOR_NAME	20	Incongruent	żółty	yellow	niebieski	blue	hit	n/a
375.354	n/a	RESPONSE	n/a	n/a	n/a	n/a	n/a	n/a	n/a	yellow
375.384	1.0166	ITI	n/a	n/a	n/a	n/a	n/a	n/a	n/a	n/a
376.4006	0.5167	FIXCROSS	n/a	n/a	n/a	n/a	n/a	n/a	n/a	n/a
376.9173	0.9166	COLOR_NAME	21	Neutral	czerwony	red	Neutral	Neutral	hit	n/a
377.8126	n/a	RESPONSE	n/a	n/a	n/a	n/a	n/a	n/a	n/a	red
377.834	1.0167	ITI	n/a	n/a	n/a	n/a	n/a	n/a	n/a	n/a
378.8507	0.5166	FIXCROSS	n/a	n/a	n/a	n/a	n/a	n/a	n/a	n/a
379.3673	0.8667	COLOR_NAME	22	Incongruent	żółty	yellow	niebieski	blue	hit	n/a
380.2072	n/a	RESPONSE	n/a	n/a	n/a	n/a	n/a	n/a	n/a	yellow
380.234	1.0167	ITI	n/a	n/a	n/a	n/a	n/a	n/a	n/a	n/a
381.2507	0.5167	FIXCROSS	n/a	n/a	n/a	n/a	n/a	n/a	n/a	n/a
381.7674	0.95	COLOR_NAME	23	Incongruent	czerwony	red	żółty	yellow	hit	n/a
382.6817	n/a	RESPONSE	n/a	n/a	n/a	n/a	n/a	n/a	n/a	red
382.7173	1.0167	ITI	n/a	n/a	n/a	n/a	n/a	n/a	n/a	n/a
383.734	0.5167	FIXCROSS	n/a	n/a	n/a	n/a	n/a	n/a	n/a	n/a
384.2507	1.05	COLOR_NAME	24	Neutral	zielony	green	Neutral	Neutral	hit	n/a
385.2679	n/a	RESPONSE	n/a	n/a	n/a	n/a	n/a	n/a	n/a	green
385.3007	1.0167	ITI	n/a	n/a	n/a	n/a	n/a	n/a	n/a	n/a
386.3174	0.5167	FIXCROSS	n/a	n/a	n/a	n/a	n/a	n/a	n/a	n/a
386.8341	1.2166	COLOR_NAME	25	Incongruent	czerwony	red	zielony	green	hit	n/a
388.0298	n/a	RESPONSE	n/a	n/a	n/a	n/a	n/a	n/a	n/a	red
388.0507	1.0167	ITI	n/a	n/a	n/a	n/a	n/a	n/a	n/a	n/a
389.0674	0.5167	FIXCROSS	n/a	n/a	n/a	n/a	n/a	n/a	n/a	n/a
389.5841	1.0667	COLOR_NAME	26	Neutral	żółty	yellow	Neutral	Neutral	hit	n/a
390.632	n/a	RESPONSE	n/a	n/a	n/a	n/a	n/a	n/a	n/a	yellow
390.6508	1.0166	ITI	n/a	n/a	n/a	n/a	n/a	n/a	n/a	n/a
391.6674	0.5167	FIXCROSS	n/a	n/a	n/a	n/a	n/a	n/a	n/a	n/a
392.1841	0.95	COLOR_NAME	27	Incongruent	żółty	yellow	zielony	green	hit	n/a
393.1064	n/a	RESPONSE	n/a	n/a	n/a	n/a	n/a	n/a	n/a	yellow
393.1341	1.0166	ITI	n/a	n/a	n/a	n/a	n/a	n/a	n/a	n/a
394.1508	0.5167	FIXCROSS	n/a	n/a	n/a	n/a	n/a	n/a	n/a	n/a
394.6675	1.15	COLOR_NAME	28	Neutral	niebieski	blue	Neutral	Neutral	hit	n/a
395.7885	n/a	RESPONSE	n/a	n/a	n/a	n/a	n/a	n/a	n/a	blue
395.8175	1.0167	ITI	n/a	n/a	n/a	n/a	n/a	n/a	n/a	n/a
396.8341	0.5167	FIXCROSS	n/a	n/a	n/a	n/a	n/a	n/a	n/a	n/a
397.3508	1.0333	COLOR_NAME	29	Neutral	niebieski	blue	Neutral	Neutral	hit	n/a
398.3588	n/a	RESPONSE	n/a	n/a	n/a	n/a	n/a	n/a	n/a	blue
398.3842	1.0167	ITI	n/a	n/a	n/a	n/a	n/a	n/a	n/a	n/a
399.4008	0.5166	FIXCROSS	n/a	n/a	n/a	n/a	n/a	n/a	n/a	n/a
399.9175	1.35	COLOR_NAME	30	Incongruent	niebieski	blue	czerwony	red	hit	n/a
401.2483	n/a	RESPONSE	n/a	n/a	n/a	n/a	n/a	n/a	n/a	blue
401.2675	1.0167	ITI	n/a	n/a	n/a	n/a	n/a	n/a	n/a	n/a
402.2842	0.5167	FIXCROSS	n/a	n/a	n/a	n/a	n/a	n/a	n/a	n/a
402.8008	1.2833	COLOR_NAME	31	Neutral	zielony	green	Neutral	Neutral	hit	n/a
404.0581	n/a	RESPONSE	n/a	n/a	n/a	n/a	n/a	n/a	n/a	green
404.0842	1.0167	ITI	n/a	n/a	n/a	n/a	n/a	n/a	n/a	n/a
405.1009	0.5167	FIXCROSS	n/a	n/a	n/a	n/a	n/a	n/a	n/a	n/a
405.6175	1.3333	COLOR_NAME	32	Incongruent	czerwony	red	zielony	green	hit	n/a
406.9316	n/a	RESPONSE	n/a	n/a	n/a	n/a	n/a	n/a	n/a	red
406.9509	1.0167	ITI	n/a	n/a	n/a	n/a	n/a	n/a	n/a	n/a
407.9676	0.5167	FIXCROSS	n/a	n/a	n/a	n/a	n/a	n/a	n/a	n/a
408.4842	1.3	COLOR_NAME	33	Neutral	zielony	green	Neutral	Neutral	hit	n/a
409.7573	n/a	RESPONSE	n/a	n/a	n/a	n/a	n/a	n/a	n/a	green
409.7842	1.0167	ITI	n/a	n/a	n/a	n/a	n/a	n/a	n/a	n/a
410.8009	0.5167	FIXCROSS	n/a	n/a	n/a	n/a	n/a	n/a	n/a	n/a
411.3176	1.2333	COLOR_NAME	34	Incongruent	niebieski	blue	żółty	yellow	hit	n/a
412.5191	n/a	RESPONSE	n/a	n/a	n/a	n/a	n/a	n/a	n/a	blue
412.5509	1.0167	ITI	n/a	n/a	n/a	n/a	n/a	n/a	n/a	n/a
413.5676	0.5167	FIXCROSS	n/a	n/a	n/a	n/a	n/a	n/a	n/a	n/a
414.0843	1.0	COLOR_NAME	35	Neutral	niebieski	blue	Neutral	Neutral	hit	n/a
415.0574	n/a	RESPONSE	n/a	n/a	n/a	n/a	n/a	n/a	n/a	blue
415.0842	1.0167	ITI	n/a	n/a	n/a	n/a	n/a	n/a	n/a	n/a
416.101	0.5167	FIXCROSS	n/a	n/a	n/a	n/a	n/a	n/a	n/a	n/a
416.6176	1.0333	COLOR_NAME	36	Neutral	żółty	yellow	Neutral	Neutral	hit	n/a
417.6278	n/a	RESPONSE	n/a	n/a	n/a	n/a	n/a	n/a	n/a	yellow
417.651	1.0167	ITI	n/a	n/a	n/a	n/a	n/a	n/a	n/a	n/a
418.6676	0.5166	FIXCROSS	n/a	n/a	n/a	n/a	n/a	n/a	n/a	n/a
419.1843	1.2667	COLOR_NAME	37	Incongruent	zielony	green	niebieski	blue	hit	n/a
420.4215	n/a	RESPONSE	n/a	n/a	n/a	n/a	n/a	n/a	n/a	green
420.451	1.0167	ITI	n/a	n/a	n/a	n/a	n/a	n/a	n/a	n/a
421.4677	0.5166	FIXCROSS	n/a	n/a	n/a	n/a	n/a	n/a	n/a	n/a
421.9843	0.95	COLOR_NAME	38	Neutral	czerwony	red	Neutral	Neutral	hit	n/a
422.912	n/a	RESPONSE	n/a	n/a	n/a	n/a	n/a	n/a	n/a	red
422.9343	1.0167	ITI	n/a	n/a	n/a	n/a	n/a	n/a	n/a	n/a
423.951	0.5167	FIXCROSS	n/a	n/a	n/a	n/a	n/a	n/a	n/a	n/a
424.4677	1.5333	COLOR_NAME	39	Neutral	zielony	green	Neutral	Neutral	hit	n/a
425.9771	n/a	RESPONSE	n/a	n/a	n/a	n/a	n/a	n/a	n/a	green
426.001	1.0167	ITI	n/a	n/a	n/a	n/a	n/a	n/a	n/a	n/a
427.0177	0.5167	FIXCROSS	n/a	n/a	n/a	n/a	n/a	n/a	n/a	n/a
427.5344	1.0666	COLOR_NAME	40	Incongruent	niebieski	blue	żółty	yellow	hit	n/a
428.5793	n/a	RESPONSE	n/a	n/a	n/a	n/a	n/a	n/a	n/a	blue
428.601	1.0167	ITI	n/a	n/a	n/a	n/a	n/a	n/a	n/a	n/a
429.6177	0.5167	FIXCROSS	n/a	n/a	n/a	n/a	n/a	n/a	n/a	n/a
430.1344	1.1167	COLOR_NAME	41	Incongruent	żółty	yellow	czerwony	red	hit	n/a
431.2293	n/a	RESPONSE	n/a	n/a	n/a	n/a	n/a	n/a	n/a	yellow
431.2511	1.0167	ITI	n/a	n/a	n/a	n/a	n/a	n/a	n/a	n/a
432.2677	0.5166	FIXCROSS	n/a	n/a	n/a	n/a	n/a	n/a	n/a	n/a
432.7844	0.9834	COLOR_NAME	42	Neutral	czerwony	red	Neutral	Neutral	hit	n/a
433.7357	n/a	RESPONSE	n/a	n/a	n/a	n/a	n/a	n/a	n/a	red
433.7677	1.0166	ITI	n/a	n/a	n/a	n/a	n/a	n/a	n/a	n/a
434.7844	0.5167	FIXCROSS	n/a	n/a	n/a	n/a	n/a	n/a	n/a	n/a
435.3011	0.95	COLOR_NAME	43	Neutral	żółty	yellow	Neutral	Neutral	hit	n/a
436.2261	n/a	RESPONSE	n/a	n/a	n/a	n/a	n/a	n/a	n/a	yellow
436.2511	1.0167	ITI	n/a	n/a	n/a	n/a	n/a	n/a	n/a	n/a
437.2678	0.5167	FIXCROSS	n/a	n/a	n/a	n/a	n/a	n/a	n/a	n/a
437.7844	1.15	COLOR_NAME	44	Neutral	niebieski	blue	Neutral	Neutral	hit	n/a
438.9082	n/a	RESPONSE	n/a	n/a	n/a	n/a	n/a	n/a	n/a	blue
438.9345	1.0167	ITI	n/a	n/a	n/a	n/a	n/a	n/a	n/a	n/a
439.9511	0.5167	FIXCROSS	n/a	n/a	n/a	n/a	n/a	n/a	n/a	n/a
440.4678	1.4833	COLOR_NAME	45	Incongruent	czerwony	red	zielony	green	hit	n/a
441.9254	n/a	RESPONSE	n/a	n/a	n/a	n/a	n/a	n/a	n/a	red
441.9511	1.0167	ITI	n/a	n/a	n/a	n/a	n/a	n/a	n/a	n/a
442.9678	0.5167	FIXCROSS	n/a	n/a	n/a	n/a	n/a	n/a	n/a	n/a
443.4845	0.9667	COLOR_NAME	46	Neutral	zielony	green	Neutral	Neutral	hit	n/a
444.4317	n/a	RESPONSE	n/a	n/a	n/a	n/a	n/a	n/a	n/a	green
444.4512	1.0167	ITI	n/a	n/a	n/a	n/a	n/a	n/a	n/a	n/a
445.4678	0.5167	FIXCROSS	n/a	n/a	n/a	n/a	n/a	n/a	n/a	n/a
445.9845	0.9667	COLOR_NAME	47	Neutral	czerwony	red	Neutral	Neutral	hit	n/a
446.9222	n/a	RESPONSE	n/a	n/a	n/a	n/a	n/a	n/a	n/a	red
446.9512	1.0167	ITI	n/a	n/a	n/a	n/a	n/a	n/a	n/a	n/a
447.9678	0.5166	FIXCROSS	n/a	n/a	n/a	n/a	n/a	n/a	n/a	n/a
448.4845	1.15	COLOR_NAME	48	Neutral	żółty	yellow	Neutral	Neutral	hit	n/a
449.6041	n/a	RESPONSE	n/a	n/a	n/a	n/a	n/a	n/a	n/a	yellow
449.6345	1.0167	ITI	n/a	n/a	n/a	n/a	n/a	n/a	n/a	n/a
450.6512	0.5167	FIXCROSS	n/a	n/a	n/a	n/a	n/a	n/a	n/a	n/a
451.1679	0.7667	COLOR_NAME	49	Neutral	żółty	yellow	Neutral	Neutral	hit	n/a
451.903	n/a	RESPONSE	n/a	n/a	n/a	n/a	n/a	n/a	n/a	yellow
451.9345	1.0167	ITI	n/a	n/a	n/a	n/a	n/a	n/a	n/a	n/a
452.9512	0.5167	FIXCROSS	n/a	n/a	n/a	n/a	n/a	n/a	n/a	n/a
453.4679	1.3167	COLOR_NAME	50	Neutral	niebieski	blue	Neutral	Neutral	hit	n/a
454.7606	n/a	RESPONSE	n/a	n/a	n/a	n/a	n/a	n/a	n/a	blue
454.7846	1.0167	ITI	n/a	n/a	n/a	n/a	n/a	n/a	n/a	n/a
455.8012	0.5167	FIXCROSS	n/a	n/a	n/a	n/a	n/a	n/a	n/a	n/a
456.3179	0.9833	COLOR_NAME	51	Neutral	niebieski	blue	Neutral	Neutral	hit	n/a
457.283	n/a	RESPONSE	n/a	n/a	n/a	n/a	n/a	n/a	n/a	blue
457.3012	1.0167	ITI	n/a	n/a	n/a	n/a	n/a	n/a	n/a	n/a
458.3179	0.5166	FIXCROSS	n/a	n/a	n/a	n/a	n/a	n/a	n/a	n/a
458.8346	1.8	COLOR_NAME	52	Incongruent	zielony	green	niebieski	blue	hit	n/a
460.6036	n/a	RESPONSE	n/a	n/a	n/a	n/a	n/a	n/a	n/a	green
460.6346	1.0167	ITI	n/a	n/a	n/a	n/a	n/a	n/a	n/a	n/a
461.6513	0.5166	FIXCROSS	n/a	n/a	n/a	n/a	n/a	n/a	n/a	n/a
462.1679	1.2	COLOR_NAME	53	Neutral	żółty	yellow	Neutral	Neutral	hit	n/a
463.3495	n/a	RESPONSE	n/a	n/a	n/a	n/a	n/a	n/a	n/a	yellow
463.368	1.0167	ITI	n/a	n/a	n/a	n/a	n/a	n/a	n/a	n/a
464.3846	0.5166	FIXCROSS	n/a	n/a	n/a	n/a	n/a	n/a	n/a	n/a
464.9013	1.1167	COLOR_NAME	54	Neutral	czerwony	red	Neutral	Neutral	hit	n/a
465.9994	n/a	RESPONSE	n/a	n/a	n/a	n/a	n/a	n/a	n/a	red
466.0179	1.0167	ITI	n/a	n/a	n/a	n/a	n/a	n/a	n/a	n/a
467.0346	0.5166	FIXCROSS	n/a	n/a	n/a	n/a	n/a	n/a	n/a	n/a
467.5513	1.3834	COLOR_NAME	55	Incongruent	zielony	green	niebieski	blue	hit	n/a
468.905	n/a	RESPONSE	n/a	n/a	n/a	n/a	n/a	n/a	n/a	green
468.9347	1.0167	ITI	n/a	n/a	n/a	n/a	n/a	n/a	n/a	n/a
469.9513	0.5167	FIXCROSS	n/a	n/a	n/a	n/a	n/a	n/a	n/a	n/a
470.468	1.3667	COLOR_NAME	56	Neutral	żółty	yellow	Neutral	Neutral	hit	n/a
471.8105	n/a	RESPONSE	n/a	n/a	n/a	n/a	n/a	n/a	n/a	yellow
471.8347	1.0166	ITI	n/a	n/a	n/a	n/a	n/a	n/a	n/a	n/a
472.8513	0.5167	FIXCROSS	n/a	n/a	n/a	n/a	n/a	n/a	n/a	n/a
473.368	1.0166	COLOR_NAME	57	Incongruent	niebieski	blue	zielony	green	hit	n/a
474.3649	n/a	RESPONSE	n/a	n/a	n/a	n/a	n/a	n/a	n/a	blue
474.3847	1.0167	ITI	n/a	n/a	n/a	n/a	n/a	n/a	n/a	n/a
475.4014	0.5167	FIXCROSS	n/a	n/a	n/a	n/a	n/a	n/a	n/a	n/a
475.918	1.45	COLOR_NAME	58	Incongruent	czerwony	red	żółty	yellow	hit	n/a
477.3503	n/a	RESPONSE	n/a	n/a	n/a	n/a	n/a	n/a	n/a	red
477.368	1.0167	ITI	n/a	n/a	n/a	n/a	n/a	n/a	n/a	n/a
478.3847	0.5167	FIXCROSS	n/a	n/a	n/a	n/a	n/a	n/a	n/a	n/a
478.9014	1.2833	COLOR_NAME	59	Incongruent	zielony	green	czerwony	red	hit	n/a
480.1599	n/a	RESPONSE	n/a	n/a	n/a	n/a	n/a	n/a	n/a	green
480.1847	1.0167	ITI	n/a	n/a	n/a	n/a	n/a	n/a	n/a	n/a
481.2014	0.5166	FIXCROSS	n/a	n/a	n/a	n/a	n/a	n/a	n/a	n/a
481.7181	1.0334	COLOR_NAME	60	Incongruent	zielony	green	żółty	yellow	hit	n/a
482.7303	n/a	RESPONSE	n/a	n/a	n/a	n/a	n/a	n/a	n/a	green
482.7514	1.0167	ITI	n/a	n/a	n/a	n/a	n/a	n/a	n/a	n/a
483.7681	0.5167	FIXCROSS	n/a	n/a	n/a	n/a	n/a	n/a	n/a	n/a
484.2848	1.3833	COLOR_NAME	61	Incongruent	żółty	yellow	zielony	green	hit	n/a
485.6357	n/a	RESPONSE	n/a	n/a	n/a	n/a	n/a	n/a	n/a	yellow
485.6681	1.0167	ITI	n/a	n/a	n/a	n/a	n/a	n/a	n/a	n/a
486.6848	0.5167	FIXCROSS	n/a	n/a	n/a	n/a	n/a	n/a	n/a	n/a
487.2015	1.15	COLOR_NAME	62	Neutral	żółty	yellow	Neutral	Neutral	hit	n/a
488.3337	n/a	RESPONSE	n/a	n/a	n/a	n/a	n/a	n/a	n/a	yellow
488.3515	1.0167	ITI	n/a	n/a	n/a	n/a	n/a	n/a	n/a	n/a
489.3681	0.5167	FIXCROSS	n/a	n/a	n/a	n/a	n/a	n/a	n/a	n/a
489.8848	1.5	COLOR_NAME	63	Incongruent	niebieski	blue	żółty	yellow	hit	n/a
491.3669	n/a	RESPONSE	n/a	n/a	n/a	n/a	n/a	n/a	n/a	blue
491.3848	1.0166	ITI	n/a	n/a	n/a	n/a	n/a	n/a	n/a	n/a
492.4015	0.5167	FIXCROSS	n/a	n/a	n/a	n/a	n/a	n/a	n/a	n/a
492.9182	1.2333	COLOR_NAME	64	Neutral	zielony	green	Neutral	Neutral	hit	n/a
494.1286	n/a	RESPONSE	n/a	n/a	n/a	n/a	n/a	n/a	n/a	green
494.1515	1.0167	ITI	n/a	n/a	n/a	n/a	n/a	n/a	n/a	n/a
495.1682	0.5167	FIXCROSS	n/a	n/a	n/a	n/a	n/a	n/a	n/a	n/a
495.6849	2.4167	COLOR_NAME	65	Neutral	czerwony	red	Neutral	Neutral	hit	n/a
498.0718	n/a	RESPONSE	n/a	n/a	n/a	n/a	n/a	n/a	n/a	red
498.1015	1.0167	ITI	n/a	n/a	n/a	n/a	n/a	n/a	n/a	n/a
499.1182	0.5166	FIXCROSS	n/a	n/a	n/a	n/a	n/a	n/a	n/a	n/a
499.6349	1.4667	COLOR_NAME	66	Incongruent	żółty	yellow	czerwony	red	hit	n/a
501.0732	n/a	RESPONSE	n/a	n/a	n/a	n/a	n/a	n/a	n/a	yellow
501.1016	1.0167	ITI	n/a	n/a	n/a	n/a	n/a	n/a	n/a	n/a
502.1182	0.5167	FIXCROSS	n/a	n/a	n/a	n/a	n/a	n/a	n/a	n/a
502.6349	1.0833	COLOR_NAME	67	Incongruent	niebieski	blue	zielony	green	hit	n/a
503.6912	n/a	RESPONSE	n/a	n/a	n/a	n/a	n/a	n/a	n/a	blue
503.7182	1.0167	ITI	n/a	n/a	n/a	n/a	n/a	n/a	n/a	n/a
504.7349	0.5167	FIXCROSS	n/a	n/a	n/a	n/a	n/a	n/a	n/a	n/a
505.2516	1.0	COLOR_NAME	68	Incongruent	niebieski	blue	czerwony	red	hit	n/a
506.2296	n/a	RESPONSE	n/a	n/a	n/a	n/a	n/a	n/a	n/a	blue
506.2516	1.0167	ITI	n/a	n/a	n/a	n/a	n/a	n/a	n/a	n/a
507.2683	0.5166	FIXCROSS	n/a	n/a	n/a	n/a	n/a	n/a	n/a	n/a
507.7849	1.2501	COLOR_NAME	69	Incongruent	czerwony	red	niebieski	blue	hit	n/a
509.0073	n/a	RESPONSE	n/a	n/a	n/a	n/a	n/a	n/a	n/a	red
509.035	1.0167	ITI	n/a	n/a	n/a	n/a	n/a	n/a	n/a	n/a
510.0516	0.5167	FIXCROSS	n/a	n/a	n/a	n/a	n/a	n/a	n/a	n/a
510.5683	1.1	COLOR_NAME	70	Neutral	niebieski	blue	Neutral	Neutral	hit	n/a
511.6414	n/a	RESPONSE	n/a	n/a	n/a	n/a	n/a	n/a	n/a	blue
511.6683	1.0167	ITI	n/a	n/a	n/a	n/a	n/a	n/a	n/a	n/a
512.685	0.5167	FIXCROSS	n/a	n/a	n/a	n/a	n/a	n/a	n/a	n/a
513.2016	1.2833	COLOR_NAME	71	Neutral	zielony	green	Neutral	Neutral	hit	n/a
514.4671	n/a	RESPONSE	n/a	n/a	n/a	n/a	n/a	n/a	n/a	green
514.485	1.0167	ITI	n/a	n/a	n/a	n/a	n/a	n/a	n/a	n/a
515.5017	0.5167	FIXCROSS	n/a	n/a	n/a	n/a	n/a	n/a	n/a	n/a
516.0183	1.1167	COLOR_NAME	72	Incongruent	żółty	yellow	zielony	green	hit	n/a
517.1172	n/a	RESPONSE	n/a	n/a	n/a	n/a	n/a	n/a	n/a	yellow
517.135	1.0333	ITI	n/a	n/a	n/a	n/a	n/a	n/a	n/a	n/a
521.7948	n/a	RESPONSE	n/a	n/a	n/a	n/a	n/a	n/a	n/a	n/a
