onset	duration	trial_type	trial_number	stroop_condition	stim_text(PL)	stim_text(eng)	stim_color(PL)	stim_color(eng)	response_type	response_color
0.0	n/a	RESPONSE	n/a	n/a	n/a	n/a	n/a	n/a	n/a	n/a
0.0264	1.0166	ITI	n/a	n/a	n/a	n/a	n/a	n/a	n/a	n/a
1.043	0.5	FIXCROSS	n/a	n/a	n/a	n/a	n/a	n/a	n/a	n/a
1.543	1.4	T_INK	1	Neutral	xxxxx	xxxxx	niebieski	blue	hit	n/a
2.926	n/a	RESPONSE	n/a	n/a	n/a	n/a	n/a	n/a	n/a	blue
2.943	0.5	FEEDBACK	n/a	n/a	n/a	n/a	n/a	n/a	n/a	n/a
3.443	1.0167	ITI	n/a	n/a	n/a	n/a	n/a	n/a	n/a	n/a
4.4596	0.5	FIXCROSS	n/a	n/a	n/a	n/a	n/a	n/a	n/a	n/a
4.9596	0.8	T_INK	2	Incongruent	żółty	yellow	czerwony	red	hit	n/a
5.7399	n/a	RESPONSE	n/a	n/a	n/a	n/a	n/a	n/a	n/a	red
5.7596	0.5	FEEDBACK	n/a	n/a	n/a	n/a	n/a	n/a	n/a	n/a
6.2596	1.0	ITI	n/a	n/a	n/a	n/a	n/a	n/a	n/a	n/a
7.2595	0.5	FIXCROSS	n/a	n/a	n/a	n/a	n/a	n/a	n/a	n/a
7.7595	0.85	T_INK	3	Incongruent	żółty	yellow	zielony	green	hit	n/a
8.6019	n/a	RESPONSE	n/a	n/a	n/a	n/a	n/a	n/a	n/a	green
8.6095	0.5	FEEDBACK	n/a	n/a	n/a	n/a	n/a	n/a	n/a	n/a
9.1095	1.0	ITI	n/a	n/a	n/a	n/a	n/a	n/a	n/a	n/a
10.1095	0.5	FIXCROSS	n/a	n/a	n/a	n/a	n/a	n/a	n/a	n/a
10.6095	0.6667	T_INK	4	Incongruent	zielony	green	żółty	yellow	hit	n/a
11.256	n/a	RESPONSE	n/a	n/a	n/a	n/a	n/a	n/a	n/a	yellow
11.2761	0.5	FEEDBACK	n/a	n/a	n/a	n/a	n/a	n/a	n/a	n/a
11.7761	1.0	ITI	n/a	n/a	n/a	n/a	n/a	n/a	n/a	n/a
12.7761	0.5	FIXCROSS	n/a	n/a	n/a	n/a	n/a	n/a	n/a	n/a
13.2761	0.5333	T_INK	5	Neutral	xxxxxxxx	xxxxxxxx	niebieski	blue	hit	n/a
13.7983	n/a	RESPONSE	n/a	n/a	n/a	n/a	n/a	n/a	n/a	blue
13.8094	0.5	FEEDBACK	n/a	n/a	n/a	n/a	n/a	n/a	n/a	n/a
14.3094	1.0	ITI	n/a	n/a	n/a	n/a	n/a	n/a	n/a	n/a
15.3094	0.5	FIXCROSS	n/a	n/a	n/a	n/a	n/a	n/a	n/a	n/a
15.8094	0.5833	T_INK	6	Incongruent	żółty	yellow	niebieski	blue	hit	n/a
16.3885	n/a	RESPONSE	n/a	n/a	n/a	n/a	n/a	n/a	n/a	blue
16.3927	0.5	FEEDBACK	n/a	n/a	n/a	n/a	n/a	n/a	n/a	n/a
16.8927	1.0	ITI	n/a	n/a	n/a	n/a	n/a	n/a	n/a	n/a
17.8927	0.5	FIXCROSS	n/a	n/a	n/a	n/a	n/a	n/a	n/a	n/a
18.3927	0.5667	T_INK	7	Neutral	xxxxxxxxx	xxxxxxxxx	czerwony	red	hit	n/a
18.9467	n/a	RESPONSE	n/a	n/a	n/a	n/a	n/a	n/a	n/a	red
18.9593	0.5	FEEDBACK	n/a	n/a	n/a	n/a	n/a	n/a	n/a	n/a
19.4593	1.0	ITI	n/a	n/a	n/a	n/a	n/a	n/a	n/a	n/a
20.4593	0.5	FIXCROSS	n/a	n/a	n/a	n/a	n/a	n/a	n/a	n/a
20.9593	0.5667	T_INK	8	Incongruent	czerwony	red	niebieski	blue	hit	n/a
21.5208	n/a	RESPONSE	n/a	n/a	n/a	n/a	n/a	n/a	n/a	blue
21.5259	0.5	FEEDBACK	n/a	n/a	n/a	n/a	n/a	n/a	n/a	n/a
22.0259	1.0	ITI	n/a	n/a	n/a	n/a	n/a	n/a	n/a	n/a
23.0259	0.5	FIXCROSS	n/a	n/a	n/a	n/a	n/a	n/a	n/a	n/a
23.5259	0.7	T_INK	9	Incongruent	niebieski	blue	zielony	green	hit	n/a
24.2069	n/a	RESPONSE	n/a	n/a	n/a	n/a	n/a	n/a	n/a	green
24.2259	0.5	FEEDBACK	n/a	n/a	n/a	n/a	n/a	n/a	n/a	n/a
24.7259	1.0	ITI	n/a	n/a	n/a	n/a	n/a	n/a	n/a	n/a
25.7258	0.5	FIXCROSS	n/a	n/a	n/a	n/a	n/a	n/a	n/a	n/a
26.2258	0.5167	T_INK	10	Neutral	xxxxxxxxx	xxxxxxxxx	żółty	yellow	hit	n/a
26.7332	n/a	RESPONSE	n/a	n/a	n/a	n/a	n/a	n/a	n/a	yellow
26.7425	0.5	FEEDBACK	n/a	n/a	n/a	n/a	n/a	n/a	n/a	n/a
27.2425	1.0	ITI	n/a	n/a	n/a	n/a	n/a	n/a	n/a	n/a
28.2425	0.5	FIXCROSS	n/a	n/a	n/a	n/a	n/a	n/a	n/a	n/a
28.7424	1.1166	T_INK	11	Neutral	xxxxxxxxx	xxxxxxxxx	zielony	green	hit	n/a
29.851	n/a	RESPONSE	n/a	n/a	n/a	n/a	n/a	n/a	n/a	green
29.8591	0.5	FEEDBACK	n/a	n/a	n/a	n/a	n/a	n/a	n/a	n/a
30.3591	1.0	ITI	n/a	n/a	n/a	n/a	n/a	n/a	n/a	n/a
31.3591	0.5	FIXCROSS	n/a	n/a	n/a	n/a	n/a	n/a	n/a	n/a
31.8591	0.5833	T_INK	12	Neutral	xxxxxxx	xxxxxxx	żółty	yellow	hit	n/a
32.4252	n/a	RESPONSE	n/a	n/a	n/a	n/a	n/a	n/a	n/a	yellow
32.4424	0.5	FEEDBACK	n/a	n/a	n/a	n/a	n/a	n/a	n/a	n/a
32.9424	1.0	ITI	n/a	n/a	n/a	n/a	n/a	n/a	n/a	n/a
35.4311	n/a	RESPONSE	n/a	n/a	n/a	n/a	n/a	n/a	n/a	n/a
35.459	1.0	ITI	n/a	n/a	n/a	n/a	n/a	n/a	n/a	n/a
36.459	0.5	FIXCROSS	n/a	n/a	n/a	n/a	n/a	n/a	n/a	n/a
36.9589	1.3499	INK	1	Incongruent	czerwony	red	zielony	green	hit	n/a
38.2931	n/a	RESPONSE	n/a	n/a	n/a	n/a	n/a	n/a	n/a	green
38.3089	1.0	ITI	n/a	n/a	n/a	n/a	n/a	n/a	n/a	n/a
39.3089	0.5	FIXCROSS	n/a	n/a	n/a	n/a	n/a	n/a	n/a	n/a
39.8089	0.6	INK	2	Incongruent	niebieski	blue	zielony	green	hit	n/a
40.4035	n/a	RESPONSE	n/a	n/a	n/a	n/a	n/a	n/a	n/a	green
40.4089	1.0	ITI	n/a	n/a	n/a	n/a	n/a	n/a	n/a	n/a
41.4089	0.5	FIXCROSS	n/a	n/a	n/a	n/a	n/a	n/a	n/a	n/a
41.9089	0.65	INK	3	Neutral	xxxxxxxx	xxxxxxxx	żółty	yellow	hit	n/a
42.546	n/a	RESPONSE	n/a	n/a	n/a	n/a	n/a	n/a	n/a	yellow
42.5588	1.0	ITI	n/a	n/a	n/a	n/a	n/a	n/a	n/a	n/a
43.5588	0.5	FIXCROSS	n/a	n/a	n/a	n/a	n/a	n/a	n/a	n/a
44.0588	0.6167	INK	4	Incongruent	zielony	green	czerwony	red	hit	n/a
44.6565	n/a	RESPONSE	n/a	n/a	n/a	n/a	n/a	n/a	n/a	red
44.6755	1.0	ITI	n/a	n/a	n/a	n/a	n/a	n/a	n/a	n/a
45.6754	0.5	FIXCROSS	n/a	n/a	n/a	n/a	n/a	n/a	n/a	n/a
46.1754	0.5	INK	5	Incongruent	czerwony	red	niebieski	blue	hit	n/a
46.6551	n/a	RESPONSE	n/a	n/a	n/a	n/a	n/a	n/a	n/a	blue
46.6754	1.0	ITI	n/a	n/a	n/a	n/a	n/a	n/a	n/a	n/a
47.6754	0.5	FIXCROSS	n/a	n/a	n/a	n/a	n/a	n/a	n/a	n/a
48.1754	0.55	INK	6	Neutral	xxxxxxx	xxxxxxx	żółty	yellow	hit	n/a
48.7176	n/a	RESPONSE	n/a	n/a	n/a	n/a	n/a	n/a	n/a	yellow
48.7254	1.0	ITI	n/a	n/a	n/a	n/a	n/a	n/a	n/a	n/a
49.7254	0.5	FIXCROSS	n/a	n/a	n/a	n/a	n/a	n/a	n/a	n/a
50.2253	0.5833	INK	7	Neutral	xxxxxxxxx	xxxxxxxxx	czerwony	red	hit	n/a
50.7962	n/a	RESPONSE	n/a	n/a	n/a	n/a	n/a	n/a	n/a	red
50.8087	1.0	ITI	n/a	n/a	n/a	n/a	n/a	n/a	n/a	n/a
51.8086	0.5	FIXCROSS	n/a	n/a	n/a	n/a	n/a	n/a	n/a	n/a
52.3086	0.5667	INK	8	Neutral	xxxxxxxxx	xxxxxxxxx	czerwony	red	hit	n/a
52.8587	n/a	RESPONSE	n/a	n/a	n/a	n/a	n/a	n/a	n/a	red
52.8753	1.0	ITI	n/a	n/a	n/a	n/a	n/a	n/a	n/a	n/a
53.8753	0.5	FIXCROSS	n/a	n/a	n/a	n/a	n/a	n/a	n/a	n/a
54.3753	0.8667	INK	9	Incongruent	niebieski	blue	zielony	green	hit	n/a
55.225	n/a	RESPONSE	n/a	n/a	n/a	n/a	n/a	n/a	n/a	green
55.2419	1.0	ITI	n/a	n/a	n/a	n/a	n/a	n/a	n/a	n/a
56.2419	0.5	FIXCROSS	n/a	n/a	n/a	n/a	n/a	n/a	n/a	n/a
56.7419	0.5833	INK	10	Neutral	xxxxx	xxxxx	czerwony	red	hit	n/a
57.3195	n/a	RESPONSE	n/a	n/a	n/a	n/a	n/a	n/a	n/a	red
57.3252	1.0	ITI	n/a	n/a	n/a	n/a	n/a	n/a	n/a	n/a
58.3252	0.5	FIXCROSS	n/a	n/a	n/a	n/a	n/a	n/a	n/a	n/a
58.8252	0.6	INK	11	Neutral	xxxxxxxx	xxxxxxxx	zielony	green	hit	n/a
59.4141	n/a	RESPONSE	n/a	n/a	n/a	n/a	n/a	n/a	n/a	green
59.4252	1.0	ITI	n/a	n/a	n/a	n/a	n/a	n/a	n/a	n/a
60.4252	0.5	FIXCROSS	n/a	n/a	n/a	n/a	n/a	n/a	n/a	n/a
60.9251	0.5333	INK	12	Incongruent	czerwony	red	żółty	yellow	hit	n/a
61.4446	n/a	RESPONSE	n/a	n/a	n/a	n/a	n/a	n/a	n/a	yellow
61.4585	1.0	ITI	n/a	n/a	n/a	n/a	n/a	n/a	n/a	n/a
62.4584	0.5	FIXCROSS	n/a	n/a	n/a	n/a	n/a	n/a	n/a	n/a
62.9584	0.6	INK	13	Incongruent	niebieski	blue	czerwony	red	hit	n/a
63.5392	n/a	RESPONSE	n/a	n/a	n/a	n/a	n/a	n/a	n/a	red
63.5584	1.0	ITI	n/a	n/a	n/a	n/a	n/a	n/a	n/a	n/a
64.5584	0.5	FIXCROSS	n/a	n/a	n/a	n/a	n/a	n/a	n/a	n/a
65.0584	0.7	INK	14	Incongruent	żółty	yellow	zielony	green	hit	n/a
65.7455	n/a	RESPONSE	n/a	n/a	n/a	n/a	n/a	n/a	n/a	green
65.7584	1.0	ITI	n/a	n/a	n/a	n/a	n/a	n/a	n/a	n/a
66.7584	0.5	FIXCROSS	n/a	n/a	n/a	n/a	n/a	n/a	n/a	n/a
67.2583	0.55	INK	15	Neutral	xxxxxxx	xxxxxxx	niebieski	blue	hit	n/a
67.7921	n/a	RESPONSE	n/a	n/a	n/a	n/a	n/a	n/a	n/a	blue
67.8083	1.0	ITI	n/a	n/a	n/a	n/a	n/a	n/a	n/a	n/a
68.8083	0.5	FIXCROSS	n/a	n/a	n/a	n/a	n/a	n/a	n/a	n/a
69.3083	0.4333	INK	16	Incongruent	niebieski	blue	czerwony	red	hit	n/a
69.7268	n/a	RESPONSE	n/a	n/a	n/a	n/a	n/a	n/a	n/a	red
69.7416	1.0	ITI	n/a	n/a	n/a	n/a	n/a	n/a	n/a	n/a
70.7416	0.5	FIXCROSS	n/a	n/a	n/a	n/a	n/a	n/a	n/a	n/a
71.2416	0.4667	INK	17	Neutral	xxxxxxxx	xxxxxxxx	niebieski	blue	hit	n/a
71.6934	n/a	RESPONSE	n/a	n/a	n/a	n/a	n/a	n/a	n/a	blue
71.7083	1.0	ITI	n/a	n/a	n/a	n/a	n/a	n/a	n/a	n/a
72.7082	0.5	FIXCROSS	n/a	n/a	n/a	n/a	n/a	n/a	n/a	n/a
73.2082	0.5667	INK	18	Neutral	xxxxxxxxx	xxxxxxxxx	zielony	green	hit	n/a
73.7559	n/a	RESPONSE	n/a	n/a	n/a	n/a	n/a	n/a	n/a	green
73.7749	1.0	ITI	n/a	n/a	n/a	n/a	n/a	n/a	n/a	n/a
74.7749	0.5	FIXCROSS	n/a	n/a	n/a	n/a	n/a	n/a	n/a	n/a
75.2748	0.5167	INK	19	Incongruent	zielony	green	niebieski	blue	hit	n/a
75.7864	n/a	RESPONSE	n/a	n/a	n/a	n/a	n/a	n/a	n/a	blue
75.7915	1.0	ITI	n/a	n/a	n/a	n/a	n/a	n/a	n/a	n/a
76.7915	0.5	FIXCROSS	n/a	n/a	n/a	n/a	n/a	n/a	n/a	n/a
77.2915	0.5167	INK	20	Incongruent	czerwony	red	żółty	yellow	hit	n/a
77.8011	n/a	RESPONSE	n/a	n/a	n/a	n/a	n/a	n/a	n/a	yellow
77.8081	1.0	ITI	n/a	n/a	n/a	n/a	n/a	n/a	n/a	n/a
78.8081	0.5	FIXCROSS	n/a	n/a	n/a	n/a	n/a	n/a	n/a	n/a
79.3081	0.35	INK	21	Incongruent	niebieski	blue	czerwony	red	hit	n/a
79.6398	n/a	RESPONSE	n/a	n/a	n/a	n/a	n/a	n/a	n/a	red
79.6581	1.0	ITI	n/a	n/a	n/a	n/a	n/a	n/a	n/a	n/a
80.6581	0.5	FIXCROSS	n/a	n/a	n/a	n/a	n/a	n/a	n/a	n/a
81.1581	0.45	INK	22	Incongruent	żółty	yellow	niebieski	blue	hit	n/a
81.5904	n/a	RESPONSE	n/a	n/a	n/a	n/a	n/a	n/a	n/a	blue
81.6081	1.0	ITI	n/a	n/a	n/a	n/a	n/a	n/a	n/a	n/a
82.608	0.5	FIXCROSS	n/a	n/a	n/a	n/a	n/a	n/a	n/a	n/a
83.108	0.6666	INK	23	Neutral	xxxxx	xxxxx	zielony	green	hit	n/a
83.7649	n/a	RESPONSE	n/a	n/a	n/a	n/a	n/a	n/a	n/a	green
83.7747	1.0	ITI	n/a	n/a	n/a	n/a	n/a	n/a	n/a	n/a
84.7747	0.5	FIXCROSS	n/a	n/a	n/a	n/a	n/a	n/a	n/a	n/a
85.2746	0.4167	INK	24	Incongruent	żółty	yellow	czerwony	red	hit	n/a
85.6835	n/a	RESPONSE	n/a	n/a	n/a	n/a	n/a	n/a	n/a	red
85.6913	1.0	ITI	n/a	n/a	n/a	n/a	n/a	n/a	n/a	n/a
86.6913	0.5	FIXCROSS	n/a	n/a	n/a	n/a	n/a	n/a	n/a	n/a
87.1913	0.5167	INK	25	Incongruent	niebieski	blue	żółty	yellow	hit	n/a
87.6981	n/a	RESPONSE	n/a	n/a	n/a	n/a	n/a	n/a	n/a	yellow
87.7079	1.0	ITI	n/a	n/a	n/a	n/a	n/a	n/a	n/a	n/a
88.7079	0.5	FIXCROSS	n/a	n/a	n/a	n/a	n/a	n/a	n/a	n/a
89.2079	0.4667	INK	26	Neutral	xxxxx	xxxxx	niebieski	blue	hit	n/a
89.6647	n/a	RESPONSE	n/a	n/a	n/a	n/a	n/a	n/a	n/a	blue
89.6746	1.0	ITI	n/a	n/a	n/a	n/a	n/a	n/a	n/a	n/a
90.6745	0.5	FIXCROSS	n/a	n/a	n/a	n/a	n/a	n/a	n/a	n/a
91.1745	0.4667	INK	27	Incongruent	zielony	green	żółty	yellow	hit	n/a
91.6313	n/a	RESPONSE	n/a	n/a	n/a	n/a	n/a	n/a	n/a	yellow
91.6412	1.0	ITI	n/a	n/a	n/a	n/a	n/a	n/a	n/a	n/a
92.6412	0.5	FIXCROSS	n/a	n/a	n/a	n/a	n/a	n/a	n/a	n/a
93.1412	0.5	INK	28	Incongruent	zielony	green	żółty	yellow	hit	n/a
93.6299	n/a	RESPONSE	n/a	n/a	n/a	n/a	n/a	n/a	n/a	yellow
93.6411	1.0	ITI	n/a	n/a	n/a	n/a	n/a	n/a	n/a	n/a
93.7738	n/a	RESPONSE	n/a	n/a	n/a	n/a	n/a	n/a	n/a	yellow
94.6411	0.5	FIXCROSS	n/a	n/a	n/a	n/a	n/a	n/a	n/a	n/a
95.1411	0.4333	INK	29	Neutral	xxxxxxx	xxxxxxx	czerwony	red	hit	n/a
95.5647	n/a	RESPONSE	n/a	n/a	n/a	n/a	n/a	n/a	n/a	red
95.5744	1.0	ITI	n/a	n/a	n/a	n/a	n/a	n/a	n/a	n/a
96.5744	0.5	FIXCROSS	n/a	n/a	n/a	n/a	n/a	n/a	n/a	n/a
97.0744	0.5167	INK	30	Incongruent	żółty	yellow	niebieski	blue	hit	n/a
97.5791	n/a	RESPONSE	n/a	n/a	n/a	n/a	n/a	n/a	n/a	blue
97.5911	1.0	ITI	n/a	n/a	n/a	n/a	n/a	n/a	n/a	n/a
98.5911	0.5	FIXCROSS	n/a	n/a	n/a	n/a	n/a	n/a	n/a	n/a
99.091	0.6833	INK	31	Neutral	xxxxxxxxx	xxxxxxxxx	zielony	green	hit	n/a
99.7697	n/a	RESPONSE	n/a	n/a	n/a	n/a	n/a	n/a	n/a	green
99.7744	1.0	ITI	n/a	n/a	n/a	n/a	n/a	n/a	n/a	n/a
100.7743	0.5	FIXCROSS	n/a	n/a	n/a	n/a	n/a	n/a	n/a	n/a
101.2743	0.55	INK	32	Incongruent	niebieski	blue	żółty	yellow	hit	n/a
101.8161	n/a	RESPONSE	n/a	n/a	n/a	n/a	n/a	n/a	n/a	yellow
101.8243	1.0	ITI	n/a	n/a	n/a	n/a	n/a	n/a	n/a	n/a
102.8243	0.5	FIXCROSS	n/a	n/a	n/a	n/a	n/a	n/a	n/a	n/a
103.3243	0.5	INK	33	Incongruent	czerwony	red	żółty	yellow	hit	n/a
103.8147	n/a	RESPONSE	n/a	n/a	n/a	n/a	n/a	n/a	n/a	yellow
103.8243	1.0	ITI	n/a	n/a	n/a	n/a	n/a	n/a	n/a	n/a
104.8243	0.5	FIXCROSS	n/a	n/a	n/a	n/a	n/a	n/a	n/a	n/a
105.3242	0.5833	INK	34	Neutral	xxxxxxxxx	xxxxxxxxx	zielony	green	incorrect	n/a
105.8932	n/a	RESPONSE	n/a	n/a	n/a	n/a	n/a	n/a	n/a	blue
105.9076	1.0	ITI	n/a	n/a	n/a	n/a	n/a	n/a	n/a	n/a
106.9075	0.5	FIXCROSS	n/a	n/a	n/a	n/a	n/a	n/a	n/a	n/a
107.4075	0.5333	INK	35	Neutral	xxxxx	xxxxx	czerwony	red	hit	n/a
107.9238	n/a	RESPONSE	n/a	n/a	n/a	n/a	n/a	n/a	n/a	red
107.9409	1.0	ITI	n/a	n/a	n/a	n/a	n/a	n/a	n/a	n/a
108.9408	0.5	FIXCROSS	n/a	n/a	n/a	n/a	n/a	n/a	n/a	n/a
109.4408	0.5333	INK	36	Incongruent	niebieski	blue	żółty	yellow	hit	n/a
109.9703	n/a	RESPONSE	n/a	n/a	n/a	n/a	n/a	n/a	n/a	yellow
109.9742	1.0	ITI	n/a	n/a	n/a	n/a	n/a	n/a	n/a	n/a
110.9741	0.5	FIXCROSS	n/a	n/a	n/a	n/a	n/a	n/a	n/a	n/a
111.4741	0.6833	INK	37	Incongruent	czerwony	red	niebieski	blue	hit	n/a
112.1448	n/a	RESPONSE	n/a	n/a	n/a	n/a	n/a	n/a	n/a	blue
112.1574	1.0	ITI	n/a	n/a	n/a	n/a	n/a	n/a	n/a	n/a
113.1574	0.5	FIXCROSS	n/a	n/a	n/a	n/a	n/a	n/a	n/a	n/a
113.6574	0.5833	INK	38	Incongruent	żółty	yellow	zielony	green	hit	n/a
114.2232	n/a	RESPONSE	n/a	n/a	n/a	n/a	n/a	n/a	n/a	green
114.2407	1.0	ITI	n/a	n/a	n/a	n/a	n/a	n/a	n/a	n/a
115.2407	0.5	FIXCROSS	n/a	n/a	n/a	n/a	n/a	n/a	n/a	n/a
115.7407	0.6	INK	39	Incongruent	żółty	yellow	niebieski	blue	hit	n/a
116.3339	n/a	RESPONSE	n/a	n/a	n/a	n/a	n/a	n/a	n/a	blue
116.3407	1.0	ITI	n/a	n/a	n/a	n/a	n/a	n/a	n/a	n/a
117.3407	0.5	FIXCROSS	n/a	n/a	n/a	n/a	n/a	n/a	n/a	n/a
117.8407	0.5167	INK	40	Neutral	xxxxxxx	xxxxxxx	niebieski	blue	hit	n/a
118.3485	n/a	RESPONSE	n/a	n/a	n/a	n/a	n/a	n/a	n/a	blue
118.3573	1.0	ITI	n/a	n/a	n/a	n/a	n/a	n/a	n/a	n/a
119.3573	0.5	FIXCROSS	n/a	n/a	n/a	n/a	n/a	n/a	n/a	n/a
119.8573	0.7981	INK	41	Incongruent	czerwony	red	zielony	green	hit	n/a
120.6507	n/a	RESPONSE	n/a	n/a	n/a	n/a	n/a	n/a	n/a	green
120.6554	1.0018	ITI	n/a	n/a	n/a	n/a	n/a	n/a	n/a	n/a
121.6572	0.5	FIXCROSS	n/a	n/a	n/a	n/a	n/a	n/a	n/a	n/a
122.1572	0.9833	INK	42	Incongruent	zielony	green	niebieski	blue	hit	n/a
123.129	n/a	RESPONSE	n/a	n/a	n/a	n/a	n/a	n/a	n/a	blue
123.1406	1.0	ITI	n/a	n/a	n/a	n/a	n/a	n/a	n/a	n/a
124.1405	0.5	FIXCROSS	n/a	n/a	n/a	n/a	n/a	n/a	n/a	n/a
124.6405	0.4167	INK	43	Neutral	xxxxx	xxxxx	czerwony	red	hit	n/a
125.0477	n/a	RESPONSE	n/a	n/a	n/a	n/a	n/a	n/a	n/a	red
125.0572	1.0	ITI	n/a	n/a	n/a	n/a	n/a	n/a	n/a	n/a
126.0572	0.5	FIXCROSS	n/a	n/a	n/a	n/a	n/a	n/a	n/a	n/a
126.5572	0.6666	INK	44	Incongruent	czerwony	red	zielony	green	hit	n/a
127.2062	n/a	RESPONSE	n/a	n/a	n/a	n/a	n/a	n/a	n/a	green
127.2238	1.0	ITI	n/a	n/a	n/a	n/a	n/a	n/a	n/a	n/a
128.2238	0.5	FIXCROSS	n/a	n/a	n/a	n/a	n/a	n/a	n/a	n/a
128.7238	0.5	INK	45	Neutral	xxxxxxx	xxxxxxx	niebieski	blue	hit	n/a
129.2046	n/a	RESPONSE	n/a	n/a	n/a	n/a	n/a	n/a	n/a	blue
129.2238	1.0	ITI	n/a	n/a	n/a	n/a	n/a	n/a	n/a	n/a
130.2237	0.5	FIXCROSS	n/a	n/a	n/a	n/a	n/a	n/a	n/a	n/a
130.7237	0.5	INK	46	Neutral	xxxxxxxx	xxxxxxxx	żółty	yellow	hit	n/a
131.2192	n/a	RESPONSE	n/a	n/a	n/a	n/a	n/a	n/a	n/a	yellow
131.2237	1.0	ITI	n/a	n/a	n/a	n/a	n/a	n/a	n/a	n/a
132.2237	0.5	FIXCROSS	n/a	n/a	n/a	n/a	n/a	n/a	n/a	n/a
132.7237	0.6167	INK	47	Neutral	xxxxx	xxxxx	zielony	green	hit	n/a
133.3297	n/a	RESPONSE	n/a	n/a	n/a	n/a	n/a	n/a	n/a	green
133.3404	1.0	ITI	n/a	n/a	n/a	n/a	n/a	n/a	n/a	n/a
134.3403	0.5	FIXCROSS	n/a	n/a	n/a	n/a	n/a	n/a	n/a	n/a
134.8403	0.5333	INK	48	Neutral	xxxxxxx	xxxxxxx	żółty	yellow	hit	n/a
135.3603	n/a	RESPONSE	n/a	n/a	n/a	n/a	n/a	n/a	n/a	yellow
135.3736	1.0	ITI	n/a	n/a	n/a	n/a	n/a	n/a	n/a	n/a
135.4563	n/a	RESPONSE	n/a	n/a	n/a	n/a	n/a	n/a	n/a	yellow
136.3736	0.5	FIXCROSS	n/a	n/a	n/a	n/a	n/a	n/a	n/a	n/a
136.8736	0.4833	INK	49	Incongruent	żółty	yellow	czerwony	red	hit	n/a
137.3429	n/a	RESPONSE	n/a	n/a	n/a	n/a	n/a	n/a	n/a	red
137.3569	1.0	ITI	n/a	n/a	n/a	n/a	n/a	n/a	n/a	n/a
138.3569	0.5	FIXCROSS	n/a	n/a	n/a	n/a	n/a	n/a	n/a	n/a
138.8569	0.5333	INK	50	Neutral	xxxxxxxx	xxxxxxxx	żółty	yellow	hit	n/a
139.3736	n/a	RESPONSE	n/a	n/a	n/a	n/a	n/a	n/a	n/a	yellow
139.3902	1.0	ITI	n/a	n/a	n/a	n/a	n/a	n/a	n/a	n/a
140.3902	0.5	FIXCROSS	n/a	n/a	n/a	n/a	n/a	n/a	n/a	n/a
140.8902	0.6667	INK	51	Incongruent	niebieski	blue	zielony	green	hit	n/a
141.5479	n/a	RESPONSE	n/a	n/a	n/a	n/a	n/a	n/a	n/a	green
141.5568	1.0	ITI	n/a	n/a	n/a	n/a	n/a	n/a	n/a	n/a
142.5568	0.5	FIXCROSS	n/a	n/a	n/a	n/a	n/a	n/a	n/a	n/a
143.0568	0.6667	INK	52	Neutral	xxxxx	xxxxx	zielony	green	hit	n/a
143.7064	n/a	RESPONSE	n/a	n/a	n/a	n/a	n/a	n/a	n/a	green
143.7235	1.0	ITI	n/a	n/a	n/a	n/a	n/a	n/a	n/a	n/a
144.7234	0.5	FIXCROSS	n/a	n/a	n/a	n/a	n/a	n/a	n/a	n/a
145.2234	0.5333	INK	53	Neutral	xxxxxxxx	xxxxxxxx	niebieski	blue	hit	n/a
145.753	n/a	RESPONSE	n/a	n/a	n/a	n/a	n/a	n/a	n/a	blue
145.7568	1.0	ITI	n/a	n/a	n/a	n/a	n/a	n/a	n/a	n/a
146.7567	0.5	FIXCROSS	n/a	n/a	n/a	n/a	n/a	n/a	n/a	n/a
147.2567	0.4667	INK	54	Incongruent	zielony	green	żółty	yellow	hit	n/a
147.7196	n/a	RESPONSE	n/a	n/a	n/a	n/a	n/a	n/a	n/a	yellow
147.7234	1.0	ITI	n/a	n/a	n/a	n/a	n/a	n/a	n/a	n/a
148.7234	0.5	FIXCROSS	n/a	n/a	n/a	n/a	n/a	n/a	n/a	n/a
149.2234	0.4833	INK	55	Neutral	xxxxxxxxx	xxxxxxxxx	żółty	yellow	hit	n/a
149.7022	n/a	RESPONSE	n/a	n/a	n/a	n/a	n/a	n/a	n/a	yellow
149.7067	1.0	ITI	n/a	n/a	n/a	n/a	n/a	n/a	n/a	n/a
150.7067	0.5	FIXCROSS	n/a	n/a	n/a	n/a	n/a	n/a	n/a	n/a
151.2067	0.5	INK	56	Neutral	xxxxxxxxx	xxxxxxxxx	żółty	yellow	hit	n/a
151.7007	n/a	RESPONSE	n/a	n/a	n/a	n/a	n/a	n/a	n/a	yellow
151.7067	1.0	ITI	n/a	n/a	n/a	n/a	n/a	n/a	n/a	n/a
152.7066	0.5	FIXCROSS	n/a	n/a	n/a	n/a	n/a	n/a	n/a	n/a
153.2066	0.5167	INK	57	Neutral	xxxxxxxx	xxxxxxxx	niebieski	blue	hit	n/a
153.7153	n/a	RESPONSE	n/a	n/a	n/a	n/a	n/a	n/a	n/a	blue
153.7233	1.0	ITI	n/a	n/a	n/a	n/a	n/a	n/a	n/a	n/a
154.7232	0.5	FIXCROSS	n/a	n/a	n/a	n/a	n/a	n/a	n/a	n/a
155.2232	0.6167	INK	58	Incongruent	żółty	yellow	zielony	green	hit	n/a
155.8258	n/a	RESPONSE	n/a	n/a	n/a	n/a	n/a	n/a	n/a	green
155.8399	1.0	ITI	n/a	n/a	n/a	n/a	n/a	n/a	n/a	n/a
156.8399	0.5	FIXCROSS	n/a	n/a	n/a	n/a	n/a	n/a	n/a	n/a
157.3399	0.5833	INK	59	Incongruent	czerwony	red	niebieski	blue	hit	n/a
157.9044	n/a	RESPONSE	n/a	n/a	n/a	n/a	n/a	n/a	n/a	blue
157.9232	1.0	ITI	n/a	n/a	n/a	n/a	n/a	n/a	n/a	n/a
158.9232	0.4999	FIXCROSS	n/a	n/a	n/a	n/a	n/a	n/a	n/a	n/a
159.4231	0.4834	INK	60	Neutral	xxxxxxxxx	xxxxxxxxx	żółty	yellow	hit	n/a
159.9028	n/a	RESPONSE	n/a	n/a	n/a	n/a	n/a	n/a	n/a	yellow
159.9065	1.0	ITI	n/a	n/a	n/a	n/a	n/a	n/a	n/a	n/a
160.9065	0.5	FIXCROSS	n/a	n/a	n/a	n/a	n/a	n/a	n/a	n/a
161.4065	0.45	INK	61	Incongruent	żółty	yellow	czerwony	red	hit	n/a
161.8375	n/a	RESPONSE	n/a	n/a	n/a	n/a	n/a	n/a	n/a	red
161.8564	1.0	ITI	n/a	n/a	n/a	n/a	n/a	n/a	n/a	n/a
162.8564	0.5	FIXCROSS	n/a	n/a	n/a	n/a	n/a	n/a	n/a	n/a
163.3564	0.5	INK	62	Neutral	xxxxxxx	xxxxxxx	żółty	yellow	hit	n/a
163.8521	n/a	RESPONSE	n/a	n/a	n/a	n/a	n/a	n/a	n/a	yellow
163.8564	1.0	ITI	n/a	n/a	n/a	n/a	n/a	n/a	n/a	n/a
164.8564	0.5	FIXCROSS	n/a	n/a	n/a	n/a	n/a	n/a	n/a	n/a
165.3564	0.45	INK	63	Neutral	xxxxx	xxxxx	niebieski	blue	hit	n/a
165.8028	n/a	RESPONSE	n/a	n/a	n/a	n/a	n/a	n/a	n/a	blue
165.8064	1.0	ITI	n/a	n/a	n/a	n/a	n/a	n/a	n/a	n/a
166.8063	0.5	FIXCROSS	n/a	n/a	n/a	n/a	n/a	n/a	n/a	n/a
167.3063	0.4833	INK	64	Incongruent	zielony	green	niebieski	blue	hit	n/a
167.7853	n/a	RESPONSE	n/a	n/a	n/a	n/a	n/a	n/a	n/a	blue
167.7897	1.0	ITI	n/a	n/a	n/a	n/a	n/a	n/a	n/a	n/a
168.7896	0.5	FIXCROSS	n/a	n/a	n/a	n/a	n/a	n/a	n/a	n/a
169.2896	0.7833	INK	65	Neutral	xxxxxxxx	xxxxxxxx	zielony	green	hit	n/a
170.0558	n/a	RESPONSE	n/a	n/a	n/a	n/a	n/a	n/a	n/a	green
170.0729	1.0	ITI	n/a	n/a	n/a	n/a	n/a	n/a	n/a	n/a
171.0729	0.5	FIXCROSS	n/a	n/a	n/a	n/a	n/a	n/a	n/a	n/a
171.5729	0.4167	INK	66	Incongruent	zielony	green	czerwony	red	hit	n/a
171.9744	n/a	RESPONSE	n/a	n/a	n/a	n/a	n/a	n/a	n/a	red
171.9896	1.0	ITI	n/a	n/a	n/a	n/a	n/a	n/a	n/a	n/a
172.9896	0.5	FIXCROSS	n/a	n/a	n/a	n/a	n/a	n/a	n/a	n/a
173.4895	0.4833	INK	67	Neutral	xxxxxxx	xxxxxxx	czerwony	red	hit	n/a
173.957	n/a	RESPONSE	n/a	n/a	n/a	n/a	n/a	n/a	n/a	red
173.9729	1.0	ITI	n/a	n/a	n/a	n/a	n/a	n/a	n/a	n/a
174.9728	0.5	FIXCROSS	n/a	n/a	n/a	n/a	n/a	n/a	n/a	n/a
175.4728	0.4667	INK	68	Neutral	xxxxxxxxx	xxxxxxxxx	czerwony	red	hit	n/a
175.9236	n/a	RESPONSE	n/a	n/a	n/a	n/a	n/a	n/a	n/a	red
175.9395	1.0	ITI	n/a	n/a	n/a	n/a	n/a	n/a	n/a	n/a
176.9395	0.5	FIXCROSS	n/a	n/a	n/a	n/a	n/a	n/a	n/a	n/a
177.4395	0.65	INK	69	Neutral	xxxxxxxx	xxxxxxxx	zielony	green	hit	n/a
178.0821	n/a	RESPONSE	n/a	n/a	n/a	n/a	n/a	n/a	n/a	green
178.0894	1.0	ITI	n/a	n/a	n/a	n/a	n/a	n/a	n/a	n/a
179.0894	0.5	FIXCROSS	n/a	n/a	n/a	n/a	n/a	n/a	n/a	n/a
179.5894	0.5333	INK	70	Incongruent	zielony	green	czerwony	red	hit	n/a
180.1127	n/a	RESPONSE	n/a	n/a	n/a	n/a	n/a	n/a	n/a	red
180.1227	1.0	ITI	n/a	n/a	n/a	n/a	n/a	n/a	n/a	n/a
181.1227	0.5	FIXCROSS	n/a	n/a	n/a	n/a	n/a	n/a	n/a	n/a
181.6227	0.5	INK	71	Neutral	xxxxx	xxxxx	niebieski	blue	hit	n/a
182.1112	n/a	RESPONSE	n/a	n/a	n/a	n/a	n/a	n/a	n/a	blue
182.1227	1.0	ITI	n/a	n/a	n/a	n/a	n/a	n/a	n/a	n/a
183.1227	0.5	FIXCROSS	n/a	n/a	n/a	n/a	n/a	n/a	n/a	n/a
183.6227	0.65	INK	72	Neutral	xxxxxxx	xxxxxxx	czerwony	red	hit	n/a
184.2538	n/a	RESPONSE	n/a	n/a	n/a	n/a	n/a	n/a	n/a	red
184.2727	1.0333	ITI	n/a	n/a	n/a	n/a	n/a	n/a	n/a	n/a
193.4472	n/a	RESPONSE	n/a	n/a	n/a	n/a	n/a	n/a	n/a	n/a
193.4725	1.0	ITI	n/a	n/a	n/a	n/a	n/a	n/a	n/a	n/a
194.4724	0.5	FIXCROSS	n/a	n/a	n/a	n/a	n/a	n/a	n/a	n/a
194.9724	0.7833	T_COLOR_NAME	1	Incongruent	niebieski	blue	zielony	green	hit	n/a
195.7496	n/a	RESPONSE	n/a	n/a	n/a	n/a	n/a	n/a	n/a	blue
195.7558	0.5	FEEDBACK	n/a	n/a	n/a	n/a	n/a	n/a	n/a	n/a
196.2557	1.0	ITI	n/a	n/a	n/a	n/a	n/a	n/a	n/a	n/a
197.2557	0.5	FIXCROSS	n/a	n/a	n/a	n/a	n/a	n/a	n/a	n/a
197.7557	0.8166	T_COLOR_NAME	2	Neutral	niebieski	blue	Neutral	Neutral	hit	n/a
198.5635	n/a	RESPONSE	n/a	n/a	n/a	n/a	n/a	n/a	n/a	blue
198.5724	0.5	FEEDBACK	n/a	n/a	n/a	n/a	n/a	n/a	n/a	n/a
199.0724	1.0	ITI	n/a	n/a	n/a	n/a	n/a	n/a	n/a	n/a
200.0723	0.5	FIXCROSS	n/a	n/a	n/a	n/a	n/a	n/a	n/a	n/a
200.5723	0.75	T_COLOR_NAME	3	Neutral	zielony	green	Neutral	Neutral	hit	n/a
201.3136	n/a	RESPONSE	n/a	n/a	n/a	n/a	n/a	n/a	n/a	green
201.3223	0.5	FEEDBACK	n/a	n/a	n/a	n/a	n/a	n/a	n/a	n/a
201.8223	1.0	ITI	n/a	n/a	n/a	n/a	n/a	n/a	n/a	n/a
202.8223	0.5	FIXCROSS	n/a	n/a	n/a	n/a	n/a	n/a	n/a	n/a
203.3223	0.7	T_COLOR_NAME	4	Incongruent	zielony	green	żółty	yellow	hit	n/a
204.0157	n/a	RESPONSE	n/a	n/a	n/a	n/a	n/a	n/a	n/a	green
204.0223	0.5	FEEDBACK	n/a	n/a	n/a	n/a	n/a	n/a	n/a	n/a
204.5223	1.0	ITI	n/a	n/a	n/a	n/a	n/a	n/a	n/a	n/a
205.5222	0.5	FIXCROSS	n/a	n/a	n/a	n/a	n/a	n/a	n/a	n/a
206.0222	0.45	T_COLOR_NAME	5	Incongruent	czerwony	red	niebieski	blue	hit	n/a
206.462	n/a	RESPONSE	n/a	n/a	n/a	n/a	n/a	n/a	n/a	red
206.4722	0.5	FEEDBACK	n/a	n/a	n/a	n/a	n/a	n/a	n/a	n/a
206.9722	1.0	ITI	n/a	n/a	n/a	n/a	n/a	n/a	n/a	n/a
207.9722	0.5	FIXCROSS	n/a	n/a	n/a	n/a	n/a	n/a	n/a	n/a
208.4722	1.15	T_COLOR_NAME	6	Incongruent	żółty	yellow	zielony	green	hit	n/a
209.6117	n/a	RESPONSE	n/a	n/a	n/a	n/a	n/a	n/a	n/a	yellow
209.6221	0.5	FEEDBACK	n/a	n/a	n/a	n/a	n/a	n/a	n/a	n/a
210.1221	1.0	ITI	n/a	n/a	n/a	n/a	n/a	n/a	n/a	n/a
211.1221	0.5	FIXCROSS	n/a	n/a	n/a	n/a	n/a	n/a	n/a	n/a
211.6221	0.4833	T_COLOR_NAME	7	Neutral	żółty	yellow	Neutral	Neutral	hit	n/a
212.0899	n/a	RESPONSE	n/a	n/a	n/a	n/a	n/a	n/a	n/a	yellow
212.1054	0.5	FEEDBACK	n/a	n/a	n/a	n/a	n/a	n/a	n/a	n/a
212.6054	1.0	ITI	n/a	n/a	n/a	n/a	n/a	n/a	n/a	n/a
213.6054	0.5	FIXCROSS	n/a	n/a	n/a	n/a	n/a	n/a	n/a	n/a
214.1054	0.6	T_COLOR_NAME	8	Neutral	niebieski	blue	Neutral	Neutral	hit	n/a
214.696	n/a	RESPONSE	n/a	n/a	n/a	n/a	n/a	n/a	n/a	blue
214.7054	0.5	FEEDBACK	n/a	n/a	n/a	n/a	n/a	n/a	n/a	n/a
215.2054	1.0	ITI	n/a	n/a	n/a	n/a	n/a	n/a	n/a	n/a
216.2053	0.5	FIXCROSS	n/a	n/a	n/a	n/a	n/a	n/a	n/a	n/a
216.7053	0.7667	T_COLOR_NAME	9	Incongruent	żółty	yellow	czerwony	red	hit	n/a
217.4621	n/a	RESPONSE	n/a	n/a	n/a	n/a	n/a	n/a	n/a	yellow
217.472	0.5	FEEDBACK	n/a	n/a	n/a	n/a	n/a	n/a	n/a	n/a
217.972	1.0	ITI	n/a	n/a	n/a	n/a	n/a	n/a	n/a	n/a
218.972	0.5	FIXCROSS	n/a	n/a	n/a	n/a	n/a	n/a	n/a	n/a
219.472	0.45	T_COLOR_NAME	10	Neutral	czerwony	red	Neutral	Neutral	hit	n/a
219.9083	n/a	RESPONSE	n/a	n/a	n/a	n/a	n/a	n/a	n/a	red
219.9219	0.5	FEEDBACK	n/a	n/a	n/a	n/a	n/a	n/a	n/a	n/a
220.4219	1.0	ITI	n/a	n/a	n/a	n/a	n/a	n/a	n/a	n/a
221.4219	0.5	FIXCROSS	n/a	n/a	n/a	n/a	n/a	n/a	n/a	n/a
221.9219	0.6	T_COLOR_NAME	11	Incongruent	żółty	yellow	niebieski	blue	hit	n/a
222.5146	n/a	RESPONSE	n/a	n/a	n/a	n/a	n/a	n/a	n/a	yellow
222.5219	0.5	FEEDBACK	n/a	n/a	n/a	n/a	n/a	n/a	n/a	n/a
223.0219	1.0	ITI	n/a	n/a	n/a	n/a	n/a	n/a	n/a	n/a
224.0219	0.5	FIXCROSS	n/a	n/a	n/a	n/a	n/a	n/a	n/a	n/a
224.5218	0.5333	T_COLOR_NAME	12	Neutral	niebieski	blue	Neutral	Neutral	hit	n/a
225.0407	n/a	RESPONSE	n/a	n/a	n/a	n/a	n/a	n/a	n/a	blue
225.0552	0.5	FEEDBACK	n/a	n/a	n/a	n/a	n/a	n/a	n/a	n/a
225.5552	1.0	ITI	n/a	n/a	n/a	n/a	n/a	n/a	n/a	n/a
228.0305	n/a	RESPONSE	n/a	n/a	n/a	n/a	n/a	n/a	n/a	n/a
228.0551	1.0	ITI	n/a	n/a	n/a	n/a	n/a	n/a	n/a	n/a
229.0551	0.5	FIXCROSS	n/a	n/a	n/a	n/a	n/a	n/a	n/a	n/a
229.5551	0.5167	COLOR_NAME	1	Incongruent	niebieski	blue	zielony	green	hit	n/a
230.0609	n/a	RESPONSE	n/a	n/a	n/a	n/a	n/a	n/a	n/a	blue
230.0717	1.0	ITI	n/a	n/a	n/a	n/a	n/a	n/a	n/a	n/a
231.0717	0.5	FIXCROSS	n/a	n/a	n/a	n/a	n/a	n/a	n/a	n/a
231.5717	0.6	COLOR_NAME	2	Incongruent	czerwony	red	żółty	yellow	hit	n/a
232.1555	n/a	RESPONSE	n/a	n/a	n/a	n/a	n/a	n/a	n/a	red
232.1717	1.0	ITI	n/a	n/a	n/a	n/a	n/a	n/a	n/a	n/a
233.1717	0.5	FIXCROSS	n/a	n/a	n/a	n/a	n/a	n/a	n/a	n/a
233.6717	0.4833	COLOR_NAME	3	Incongruent	czerwony	red	niebieski	blue	hit	n/a
234.1381	n/a	RESPONSE	n/a	n/a	n/a	n/a	n/a	n/a	n/a	red
234.155	1.0	ITI	n/a	n/a	n/a	n/a	n/a	n/a	n/a	n/a
235.155	0.5	FIXCROSS	n/a	n/a	n/a	n/a	n/a	n/a	n/a	n/a
235.655	0.4833	COLOR_NAME	4	Neutral	zielony	green	Neutral	Neutral	hit	n/a
236.1206	n/a	RESPONSE	n/a	n/a	n/a	n/a	n/a	n/a	n/a	green
236.1383	1.0	ITI	n/a	n/a	n/a	n/a	n/a	n/a	n/a	n/a
237.1383	0.5	FIXCROSS	n/a	n/a	n/a	n/a	n/a	n/a	n/a	n/a
237.6383	0.5	COLOR_NAME	5	Incongruent	niebieski	blue	żółty	yellow	hit	n/a
238.1192	n/a	RESPONSE	n/a	n/a	n/a	n/a	n/a	n/a	n/a	blue
238.1382	1.0	ITI	n/a	n/a	n/a	n/a	n/a	n/a	n/a	n/a
239.1382	0.5	FIXCROSS	n/a	n/a	n/a	n/a	n/a	n/a	n/a	n/a
239.6382	0.4333	COLOR_NAME	6	Neutral	żółty	yellow	Neutral	Neutral	hit	n/a
240.0538	n/a	RESPONSE	n/a	n/a	n/a	n/a	n/a	n/a	n/a	yellow
240.0715	1.0	ITI	n/a	n/a	n/a	n/a	n/a	n/a	n/a	n/a
241.0715	0.5	FIXCROSS	n/a	n/a	n/a	n/a	n/a	n/a	n/a	n/a
241.5715	0.5167	COLOR_NAME	7	Neutral	niebieski	blue	Neutral	Neutral	hit	n/a
242.0844	n/a	RESPONSE	n/a	n/a	n/a	n/a	n/a	n/a	n/a	blue
242.0882	1.0	ITI	n/a	n/a	n/a	n/a	n/a	n/a	n/a	n/a
243.0881	0.5	FIXCROSS	n/a	n/a	n/a	n/a	n/a	n/a	n/a	n/a
243.5881	0.3833	COLOR_NAME	8	Neutral	zielony	green	Neutral	Neutral	hit	n/a
243.955	n/a	RESPONSE	n/a	n/a	n/a	n/a	n/a	n/a	n/a	green
243.9715	1.0	ITI	n/a	n/a	n/a	n/a	n/a	n/a	n/a	n/a
244.9714	0.5	FIXCROSS	n/a	n/a	n/a	n/a	n/a	n/a	n/a	n/a
245.4714	0.3833	COLOR_NAME	9	Neutral	zielony	green	Neutral	Neutral	hit	n/a
245.8414	n/a	RESPONSE	n/a	n/a	n/a	n/a	n/a	n/a	n/a	green
245.8548	1.0	ITI	n/a	n/a	n/a	n/a	n/a	n/a	n/a	n/a
246.8547	0.5	FIXCROSS	n/a	n/a	n/a	n/a	n/a	n/a	n/a	n/a
247.3547	0.5	COLOR_NAME	10	Incongruent	niebieski	blue	zielony	green	hit	n/a
247.8398	n/a	RESPONSE	n/a	n/a	n/a	n/a	n/a	n/a	n/a	blue
247.8547	1.0	ITI	n/a	n/a	n/a	n/a	n/a	n/a	n/a	n/a
248.8547	0.5	FIXCROSS	n/a	n/a	n/a	n/a	n/a	n/a	n/a	n/a
249.3547	0.55	COLOR_NAME	11	Incongruent	żółty	yellow	czerwony	red	hit	n/a
249.8864	n/a	RESPONSE	n/a	n/a	n/a	n/a	n/a	n/a	n/a	yellow
249.9047	1.0	ITI	n/a	n/a	n/a	n/a	n/a	n/a	n/a	n/a
250.9046	0.5	FIXCROSS	n/a	n/a	n/a	n/a	n/a	n/a	n/a	n/a
251.4046	0.4833	COLOR_NAME	12	Incongruent	żółty	yellow	czerwony	red	hit	n/a
251.8849	n/a	RESPONSE	n/a	n/a	n/a	n/a	n/a	n/a	n/a	yellow
251.888	1.0	ITI	n/a	n/a	n/a	n/a	n/a	n/a	n/a	n/a
252.8879	0.5	FIXCROSS	n/a	n/a	n/a	n/a	n/a	n/a	n/a	n/a
253.3879	0.5333	COLOR_NAME	13	Incongruent	niebieski	blue	czerwony	red	hit	n/a
253.9155	n/a	RESPONSE	n/a	n/a	n/a	n/a	n/a	n/a	n/a	blue
253.9213	1.0	ITI	n/a	n/a	n/a	n/a	n/a	n/a	n/a	n/a
254.9212	0.5	FIXCROSS	n/a	n/a	n/a	n/a	n/a	n/a	n/a	n/a
255.4212	0.5	COLOR_NAME	14	Incongruent	niebieski	blue	żółty	yellow	hit	n/a
255.9141	n/a	RESPONSE	n/a	n/a	n/a	n/a	n/a	n/a	n/a	blue
255.9212	1.0	ITI	n/a	n/a	n/a	n/a	n/a	n/a	n/a	n/a
256.9212	0.5	FIXCROSS	n/a	n/a	n/a	n/a	n/a	n/a	n/a	n/a
257.4212	0.4833	COLOR_NAME	15	Neutral	niebieski	blue	Neutral	Neutral	hit	n/a
257.8967	n/a	RESPONSE	n/a	n/a	n/a	n/a	n/a	n/a	n/a	blue
257.9045	1.0	ITI	n/a	n/a	n/a	n/a	n/a	n/a	n/a	n/a
258.9045	0.5	FIXCROSS	n/a	n/a	n/a	n/a	n/a	n/a	n/a	n/a
259.4045	0.4667	COLOR_NAME	16	Neutral	niebieski	blue	Neutral	Neutral	hit	n/a
259.8634	n/a	RESPONSE	n/a	n/a	n/a	n/a	n/a	n/a	n/a	blue
259.8711	1.0	ITI	n/a	n/a	n/a	n/a	n/a	n/a	n/a	n/a
260.8711	0.5	FIXCROSS	n/a	n/a	n/a	n/a	n/a	n/a	n/a	n/a
261.3711	0.4167	COLOR_NAME	17	Incongruent	niebieski	blue	czerwony	red	hit	n/a
261.782	n/a	RESPONSE	n/a	n/a	n/a	n/a	n/a	n/a	n/a	blue
261.7878	1.0	ITI	n/a	n/a	n/a	n/a	n/a	n/a	n/a	n/a
262.7877	0.5	FIXCROSS	n/a	n/a	n/a	n/a	n/a	n/a	n/a	n/a
263.2877	0.4	COLOR_NAME	18	Incongruent	niebieski	blue	zielony	green	hit	n/a
263.6846	n/a	RESPONSE	n/a	n/a	n/a	n/a	n/a	n/a	n/a	blue
263.6877	1.0	ITI	n/a	n/a	n/a	n/a	n/a	n/a	n/a	n/a
264.6877	0.5	FIXCROSS	n/a	n/a	n/a	n/a	n/a	n/a	n/a	n/a
265.1877	0.8	COLOR_NAME	19	Incongruent	zielony	green	żółty	yellow	hit	n/a
265.9709	n/a	RESPONSE	n/a	n/a	n/a	n/a	n/a	n/a	n/a	green
265.9877	1.0	ITI	n/a	n/a	n/a	n/a	n/a	n/a	n/a	n/a
266.9877	0.5	FIXCROSS	n/a	n/a	n/a	n/a	n/a	n/a	n/a	n/a
267.4877	0.4833	COLOR_NAME	20	Neutral	czerwony	red	Neutral	Neutral	hit	n/a
267.9535	n/a	RESPONSE	n/a	n/a	n/a	n/a	n/a	n/a	n/a	red
267.971	1.0	ITI	n/a	n/a	n/a	n/a	n/a	n/a	n/a	n/a
268.971	0.5	FIXCROSS	n/a	n/a	n/a	n/a	n/a	n/a	n/a	n/a
269.471	0.3833	COLOR_NAME	21	Neutral	czerwony	red	Neutral	Neutral	hit	n/a
269.8402	n/a	RESPONSE	n/a	n/a	n/a	n/a	n/a	n/a	n/a	red
269.8543	1.0	ITI	n/a	n/a	n/a	n/a	n/a	n/a	n/a	n/a
270.8543	0.5	FIXCROSS	n/a	n/a	n/a	n/a	n/a	n/a	n/a	n/a
271.3542	0.6666	COLOR_NAME	22	Neutral	zielony	green	Neutral	Neutral	hit	n/a
272.0146	n/a	RESPONSE	n/a	n/a	n/a	n/a	n/a	n/a	n/a	green
272.0209	1.0	ITI	n/a	n/a	n/a	n/a	n/a	n/a	n/a	n/a
273.0209	0.5	FIXCROSS	n/a	n/a	n/a	n/a	n/a	n/a	n/a	n/a
273.5209	0.45	COLOR_NAME	23	Incongruent	czerwony	red	zielony	green	hit	n/a
273.9652	n/a	RESPONSE	n/a	n/a	n/a	n/a	n/a	n/a	n/a	red
273.9708	1.0	ITI	n/a	n/a	n/a	n/a	n/a	n/a	n/a	n/a
274.9708	0.5	FIXCROSS	n/a	n/a	n/a	n/a	n/a	n/a	n/a	n/a
275.4708	0.5	COLOR_NAME	24	Neutral	żółty	yellow	Neutral	Neutral	hit	n/a
275.9639	n/a	RESPONSE	n/a	n/a	n/a	n/a	n/a	n/a	n/a	yellow
275.9708	1.0	ITI	n/a	n/a	n/a	n/a	n/a	n/a	n/a	n/a
276.9708	0.5	FIXCROSS	n/a	n/a	n/a	n/a	n/a	n/a	n/a	n/a
277.4708	0.5	COLOR_NAME	25	Incongruent	czerwony	red	żółty	yellow	hit	n/a
277.9623	n/a	RESPONSE	n/a	n/a	n/a	n/a	n/a	n/a	n/a	red
277.9708	1.0	ITI	n/a	n/a	n/a	n/a	n/a	n/a	n/a	n/a
278.9708	0.5	FIXCROSS	n/a	n/a	n/a	n/a	n/a	n/a	n/a	n/a
279.4707	0.8	COLOR_NAME	26	Incongruent	zielony	green	niebieski	blue	hit	n/a
280.2648	n/a	RESPONSE	n/a	n/a	n/a	n/a	n/a	n/a	n/a	green
280.2707	1.0	ITI	n/a	n/a	n/a	n/a	n/a	n/a	n/a	n/a
281.2707	0.5	FIXCROSS	n/a	n/a	n/a	n/a	n/a	n/a	n/a	n/a
281.7707	0.4	COLOR_NAME	27	Neutral	czerwony	red	Neutral	Neutral	hit	n/a
282.1674	n/a	RESPONSE	n/a	n/a	n/a	n/a	n/a	n/a	n/a	red
282.1707	1.0	ITI	n/a	n/a	n/a	n/a	n/a	n/a	n/a	n/a
283.1707	0.5	FIXCROSS	n/a	n/a	n/a	n/a	n/a	n/a	n/a	n/a
283.6707	0.5	COLOR_NAME	28	Incongruent	niebieski	blue	czerwony	red	hit	n/a
284.166	n/a	RESPONSE	n/a	n/a	n/a	n/a	n/a	n/a	n/a	blue
284.1707	1.0	ITI	n/a	n/a	n/a	n/a	n/a	n/a	n/a	n/a
285.1706	0.5	FIXCROSS	n/a	n/a	n/a	n/a	n/a	n/a	n/a	n/a
285.6706	0.4833	COLOR_NAME	29	Neutral	czerwony	red	Neutral	Neutral	hit	n/a
286.1485	n/a	RESPONSE	n/a	n/a	n/a	n/a	n/a	n/a	n/a	red
286.1539	1.0	ITI	n/a	n/a	n/a	n/a	n/a	n/a	n/a	n/a
287.1539	0.5	FIXCROSS	n/a	n/a	n/a	n/a	n/a	n/a	n/a	n/a
287.6539	0.5332	COLOR_NAME	30	Incongruent	niebieski	blue	żółty	yellow	hit	n/a
288.1792	n/a	RESPONSE	n/a	n/a	n/a	n/a	n/a	n/a	n/a	blue
288.1871	1.0001	ITI	n/a	n/a	n/a	n/a	n/a	n/a	n/a	n/a
289.1872	0.5	FIXCROSS	n/a	n/a	n/a	n/a	n/a	n/a	n/a	n/a
289.6872	0.4167	COLOR_NAME	31	Neutral	czerwony	red	Neutral	Neutral	hit	n/a
290.0977	n/a	RESPONSE	n/a	n/a	n/a	n/a	n/a	n/a	n/a	red
290.1039	1.0	ITI	n/a	n/a	n/a	n/a	n/a	n/a	n/a	n/a
291.1038	0.5	FIXCROSS	n/a	n/a	n/a	n/a	n/a	n/a	n/a	n/a
291.6038	0.5333	COLOR_NAME	32	Incongruent	czerwony	red	niebieski	blue	hit	n/a
292.1284	n/a	RESPONSE	n/a	n/a	n/a	n/a	n/a	n/a	n/a	red
292.1371	1.0	ITI	n/a	n/a	n/a	n/a	n/a	n/a	n/a	n/a
293.1371	0.5	FIXCROSS	n/a	n/a	n/a	n/a	n/a	n/a	n/a	n/a
293.6371	0.45	COLOR_NAME	33	Incongruent	czerwony	red	niebieski	blue	hit	n/a
294.0789	n/a	RESPONSE	n/a	n/a	n/a	n/a	n/a	n/a	n/a	red
294.0871	1.0	ITI	n/a	n/a	n/a	n/a	n/a	n/a	n/a	n/a
295.0871	0.5	FIXCROSS	n/a	n/a	n/a	n/a	n/a	n/a	n/a	n/a
295.5871	0.4	COLOR_NAME	34	Neutral	czerwony	red	Neutral	Neutral	hit	n/a
295.9816	n/a	RESPONSE	n/a	n/a	n/a	n/a	n/a	n/a	n/a	red
295.9871	1.0	ITI	n/a	n/a	n/a	n/a	n/a	n/a	n/a	n/a
296.9871	0.5	FIXCROSS	n/a	n/a	n/a	n/a	n/a	n/a	n/a	n/a
297.4871	0.6333	COLOR_NAME	35	Neutral	żółty	yellow	Neutral	Neutral	hit	n/a
298.1081	n/a	RESPONSE	n/a	n/a	n/a	n/a	n/a	n/a	n/a	yellow
298.1204	1.0	ITI	n/a	n/a	n/a	n/a	n/a	n/a	n/a	n/a
298.188	n/a	RESPONSE	n/a	n/a	n/a	n/a	n/a	n/a	n/a	yellow
299.1203	0.5	FIXCROSS	n/a	n/a	n/a	n/a	n/a	n/a	n/a	n/a
299.6203	0.55	COLOR_NAME	36	Neutral	zielony	green	Neutral	Neutral	hit	n/a
300.1546	n/a	RESPONSE	n/a	n/a	n/a	n/a	n/a	n/a	n/a	green
300.1703	1.0	ITI	n/a	n/a	n/a	n/a	n/a	n/a	n/a	n/a
301.1703	0.5	FIXCROSS	n/a	n/a	n/a	n/a	n/a	n/a	n/a	n/a
301.6703	0.55	COLOR_NAME	37	Neutral	żółty	yellow	Neutral	Neutral	hit	n/a
302.2172	n/a	RESPONSE	n/a	n/a	n/a	n/a	n/a	n/a	n/a	yellow
302.2203	1.0	ITI	n/a	n/a	n/a	n/a	n/a	n/a	n/a	n/a
302.345	n/a	RESPONSE	n/a	n/a	n/a	n/a	n/a	n/a	n/a	yellow
303.2203	0.5	FIXCROSS	n/a	n/a	n/a	n/a	n/a	n/a	n/a	n/a
303.7203	0.5333	COLOR_NAME	38	Neutral	żółty	yellow	Neutral	Neutral	hit	n/a
304.2476	n/a	RESPONSE	n/a	n/a	n/a	n/a	n/a	n/a	n/a	yellow
304.2536	1.0	ITI	n/a	n/a	n/a	n/a	n/a	n/a	n/a	n/a
305.2536	0.5	FIXCROSS	n/a	n/a	n/a	n/a	n/a	n/a	n/a	n/a
305.7535	0.5167	COLOR_NAME	39	Incongruent	żółty	yellow	zielony	green	hit	n/a
306.2622	n/a	RESPONSE	n/a	n/a	n/a	n/a	n/a	n/a	n/a	yellow
306.2702	1.0	ITI	n/a	n/a	n/a	n/a	n/a	n/a	n/a	n/a
307.2702	0.5	FIXCROSS	n/a	n/a	n/a	n/a	n/a	n/a	n/a	n/a
307.7702	0.65	COLOR_NAME	40	Neutral	niebieski	blue	Neutral	Neutral	hit	n/a
308.4047	n/a	RESPONSE	n/a	n/a	n/a	n/a	n/a	n/a	n/a	blue
308.4202	1.0	ITI	n/a	n/a	n/a	n/a	n/a	n/a	n/a	n/a
309.4201	0.4998	FIXCROSS	n/a	n/a	n/a	n/a	n/a	n/a	n/a	n/a
309.92	0.5002	COLOR_NAME	41	Neutral	żółty	yellow	Neutral	Neutral	hit	n/a
310.4033	n/a	RESPONSE	n/a	n/a	n/a	n/a	n/a	n/a	n/a	yellow
310.4201	1.0	ITI	n/a	n/a	n/a	n/a	n/a	n/a	n/a	n/a
311.4201	0.5	FIXCROSS	n/a	n/a	n/a	n/a	n/a	n/a	n/a	n/a
311.9201	0.85	COLOR_NAME	42	Incongruent	zielony	green	czerwony	red	hit	n/a
312.7535	n/a	RESPONSE	n/a	n/a	n/a	n/a	n/a	n/a	n/a	green
312.7701	1.0	ITI	n/a	n/a	n/a	n/a	n/a	n/a	n/a	n/a
313.7701	0.5	FIXCROSS	n/a	n/a	n/a	n/a	n/a	n/a	n/a	n/a
314.27	0.4167	COLOR_NAME	43	Neutral	czerwony	red	Neutral	Neutral	hit	n/a
314.6723	n/a	RESPONSE	n/a	n/a	n/a	n/a	n/a	n/a	n/a	red
314.6867	1.0	ITI	n/a	n/a	n/a	n/a	n/a	n/a	n/a	n/a
315.6867	0.5	FIXCROSS	n/a	n/a	n/a	n/a	n/a	n/a	n/a	n/a
316.1867	0.4333	COLOR_NAME	44	Neutral	niebieski	blue	Neutral	Neutral	hit	n/a
316.6069	n/a	RESPONSE	n/a	n/a	n/a	n/a	n/a	n/a	n/a	blue
316.62	1.0	ITI	n/a	n/a	n/a	n/a	n/a	n/a	n/a	n/a
317.62	0.5	FIXCROSS	n/a	n/a	n/a	n/a	n/a	n/a	n/a	n/a
318.12	0.6333	COLOR_NAME	45	Neutral	niebieski	blue	Neutral	Neutral	hit	n/a
318.7494	n/a	RESPONSE	n/a	n/a	n/a	n/a	n/a	n/a	n/a	blue
318.7533	1.0	ITI	n/a	n/a	n/a	n/a	n/a	n/a	n/a	n/a
319.7533	0.5	FIXCROSS	n/a	n/a	n/a	n/a	n/a	n/a	n/a	n/a
320.2533	0.5333	COLOR_NAME	46	Incongruent	żółty	yellow	niebieski	blue	hit	n/a
320.7798	n/a	RESPONSE	n/a	n/a	n/a	n/a	n/a	n/a	n/a	yellow
320.7866	1.0	ITI	n/a	n/a	n/a	n/a	n/a	n/a	n/a	n/a
321.7866	0.5	FIXCROSS	n/a	n/a	n/a	n/a	n/a	n/a	n/a	n/a
322.2865	0.4	COLOR_NAME	47	Incongruent	czerwony	red	zielony	green	hit	n/a
322.6826	n/a	RESPONSE	n/a	n/a	n/a	n/a	n/a	n/a	n/a	red
322.6865	1.0	ITI	n/a	n/a	n/a	n/a	n/a	n/a	n/a	n/a
323.6865	0.5	FIXCROSS	n/a	n/a	n/a	n/a	n/a	n/a	n/a	n/a
324.1865	0.7667	COLOR_NAME	48	Incongruent	zielony	green	żółty	yellow	hit	n/a
324.937	n/a	RESPONSE	n/a	n/a	n/a	n/a	n/a	n/a	n/a	green
324.9532	1.0	ITI	n/a	n/a	n/a	n/a	n/a	n/a	n/a	n/a
325.9531	0.5	FIXCROSS	n/a	n/a	n/a	n/a	n/a	n/a	n/a	n/a
326.4531	0.65	COLOR_NAME	49	Neutral	żółty	yellow	Neutral	Neutral	hit	n/a
327.0955	n/a	RESPONSE	n/a	n/a	n/a	n/a	n/a	n/a	n/a	yellow
327.1031	1.0	ITI	n/a	n/a	n/a	n/a	n/a	n/a	n/a	n/a
328.1031	0.5	FIXCROSS	n/a	n/a	n/a	n/a	n/a	n/a	n/a	n/a
328.6031	0.9166	COLOR_NAME	50	Incongruent	zielony	green	czerwony	red	hit	n/a
329.5097	n/a	RESPONSE	n/a	n/a	n/a	n/a	n/a	n/a	n/a	green
329.5197	1.0	ITI	n/a	n/a	n/a	n/a	n/a	n/a	n/a	n/a
330.5197	0.5	FIXCROSS	n/a	n/a	n/a	n/a	n/a	n/a	n/a	n/a
331.0197	0.5667	COLOR_NAME	51	Neutral	niebieski	blue	Neutral	Neutral	hit	n/a
331.5723	n/a	RESPONSE	n/a	n/a	n/a	n/a	n/a	n/a	n/a	blue
331.5864	0.9999	ITI	n/a	n/a	n/a	n/a	n/a	n/a	n/a	n/a
332.5862	0.5001	FIXCROSS	n/a	n/a	n/a	n/a	n/a	n/a	n/a	n/a
333.0863	0.7	COLOR_NAME	52	Neutral	zielony	green	Neutral	Neutral	hit	n/a
333.7786	n/a	RESPONSE	n/a	n/a	n/a	n/a	n/a	n/a	n/a	green
333.7863	1.0	ITI	n/a	n/a	n/a	n/a	n/a	n/a	n/a	n/a
334.7863	0.5	FIXCROSS	n/a	n/a	n/a	n/a	n/a	n/a	n/a	n/a
335.2863	0.6167	COLOR_NAME	53	Neutral	żółty	yellow	Neutral	Neutral	hit	n/a
335.8892	n/a	RESPONSE	n/a	n/a	n/a	n/a	n/a	n/a	n/a	yellow
335.9029	1.0	ITI	n/a	n/a	n/a	n/a	n/a	n/a	n/a	n/a
336.9029	0.5	FIXCROSS	n/a	n/a	n/a	n/a	n/a	n/a	n/a	n/a
337.4029	0.3333	COLOR_NAME	54	Neutral	czerwony	red	Neutral	Neutral	hit	n/a
337.7279	n/a	RESPONSE	n/a	n/a	n/a	n/a	n/a	n/a	n/a	red
337.7362	1.0	ITI	n/a	n/a	n/a	n/a	n/a	n/a	n/a	n/a
338.7362	0.5	FIXCROSS	n/a	n/a	n/a	n/a	n/a	n/a	n/a	n/a
339.2362	0.4833	COLOR_NAME	55	Neutral	zielony	green	Neutral	Neutral	hit	n/a
339.7105	n/a	RESPONSE	n/a	n/a	n/a	n/a	n/a	n/a	n/a	green
339.7195	1.0	ITI	n/a	n/a	n/a	n/a	n/a	n/a	n/a	n/a
340.7195	0.5	FIXCROSS	n/a	n/a	n/a	n/a	n/a	n/a	n/a	n/a
341.2195	0.4833	COLOR_NAME	56	Neutral	żółty	yellow	Neutral	Neutral	hit	n/a
341.6931	n/a	RESPONSE	n/a	n/a	n/a	n/a	n/a	n/a	n/a	yellow
341.7028	1.0	ITI	n/a	n/a	n/a	n/a	n/a	n/a	n/a	n/a
342.7028	0.5	FIXCROSS	n/a	n/a	n/a	n/a	n/a	n/a	n/a	n/a
343.2028	0.5833	COLOR_NAME	57	Neutral	niebieski	blue	Neutral	Neutral	hit	n/a
343.7715	n/a	RESPONSE	n/a	n/a	n/a	n/a	n/a	n/a	n/a	blue
343.7861	1.0	ITI	n/a	n/a	n/a	n/a	n/a	n/a	n/a	n/a
344.7861	0.5	FIXCROSS	n/a	n/a	n/a	n/a	n/a	n/a	n/a	n/a
345.2861	1.2166	COLOR_NAME	58	Incongruent	zielony	green	czerwony	red	hit	n/a
346.4896	n/a	RESPONSE	n/a	n/a	n/a	n/a	n/a	n/a	n/a	green
346.5027	1.0	ITI	n/a	n/a	n/a	n/a	n/a	n/a	n/a	n/a
347.5027	0.5	FIXCROSS	n/a	n/a	n/a	n/a	n/a	n/a	n/a	n/a
348.0027	0.6	COLOR_NAME	59	Neutral	zielony	green	Neutral	Neutral	hit	n/a
348.5841	n/a	RESPONSE	n/a	n/a	n/a	n/a	n/a	n/a	n/a	green
348.6027	1.0	ITI	n/a	n/a	n/a	n/a	n/a	n/a	n/a	n/a
349.6027	0.5	FIXCROSS	n/a	n/a	n/a	n/a	n/a	n/a	n/a	n/a
350.1027	0.55	COLOR_NAME	60	Incongruent	czerwony	red	zielony	green	hit	n/a
350.6467	n/a	RESPONSE	n/a	n/a	n/a	n/a	n/a	n/a	n/a	red
350.6526	1.0	ITI	n/a	n/a	n/a	n/a	n/a	n/a	n/a	n/a
351.6526	0.5	FIXCROSS	n/a	n/a	n/a	n/a	n/a	n/a	n/a	n/a
352.1526	0.5167	COLOR_NAME	61	Incongruent	żółty	yellow	niebieski	blue	hit	n/a
352.6612	n/a	RESPONSE	n/a	n/a	n/a	n/a	n/a	n/a	n/a	yellow
352.6693	1.0	ITI	n/a	n/a	n/a	n/a	n/a	n/a	n/a	n/a
353.6693	0.5	FIXCROSS	n/a	n/a	n/a	n/a	n/a	n/a	n/a	n/a
354.1692	0.4833	COLOR_NAME	62	Incongruent	czerwony	red	żółty	yellow	hit	n/a
354.6438	n/a	RESPONSE	n/a	n/a	n/a	n/a	n/a	n/a	n/a	red
354.6526	1.0	ITI	n/a	n/a	n/a	n/a	n/a	n/a	n/a	n/a
355.6525	0.5	FIXCROSS	n/a	n/a	n/a	n/a	n/a	n/a	n/a	n/a
356.1525	0.4667	COLOR_NAME	63	Neutral	czerwony	red	Neutral	Neutral	hit	n/a
356.6104	n/a	RESPONSE	n/a	n/a	n/a	n/a	n/a	n/a	n/a	red
356.6192	1.0	ITI	n/a	n/a	n/a	n/a	n/a	n/a	n/a	n/a
357.6192	0.5	FIXCROSS	n/a	n/a	n/a	n/a	n/a	n/a	n/a	n/a
358.1192	0.8333	COLOR_NAME	64	Incongruent	żółty	yellow	zielony	green	incorrect	n/a
358.9448	n/a	RESPONSE	n/a	n/a	n/a	n/a	n/a	n/a	n/a	green
358.9525	1.0	ITI	n/a	n/a	n/a	n/a	n/a	n/a	n/a	n/a
359.9525	0.5	FIXCROSS	n/a	n/a	n/a	n/a	n/a	n/a	n/a	n/a
360.4525	0.8667	COLOR_NAME	65	Incongruent	żółty	yellow	zielony	green	hit	n/a
361.311	n/a	RESPONSE	n/a	n/a	n/a	n/a	n/a	n/a	n/a	yellow
361.3191	1.0	ITI	n/a	n/a	n/a	n/a	n/a	n/a	n/a	n/a
361.407	n/a	RESPONSE	n/a	n/a	n/a	n/a	n/a	n/a	n/a	yellow
362.3191	0.5	FIXCROSS	n/a	n/a	n/a	n/a	n/a	n/a	n/a	n/a
362.8191	0.8333	COLOR_NAME	66	Incongruent	zielony	green	niebieski	blue	hit	n/a
363.6453	n/a	RESPONSE	n/a	n/a	n/a	n/a	n/a	n/a	n/a	green
363.6524	1.0	ITI	n/a	n/a	n/a	n/a	n/a	n/a	n/a	n/a
364.6524	0.5	FIXCROSS	n/a	n/a	n/a	n/a	n/a	n/a	n/a	n/a
365.1524	0.5666	COLOR_NAME	67	Neutral	niebieski	blue	Neutral	Neutral	hit	n/a
365.708	n/a	RESPONSE	n/a	n/a	n/a	n/a	n/a	n/a	n/a	blue
365.719	1.0	ITI	n/a	n/a	n/a	n/a	n/a	n/a	n/a	n/a
366.719	0.5	FIXCROSS	n/a	n/a	n/a	n/a	n/a	n/a	n/a	n/a
367.219	0.9	COLOR_NAME	68	Incongruent	zielony	green	żółty	yellow	hit	n/a
368.1063	n/a	RESPONSE	n/a	n/a	n/a	n/a	n/a	n/a	n/a	green
368.119	1.0	ITI	n/a	n/a	n/a	n/a	n/a	n/a	n/a	n/a
369.1189	0.5	FIXCROSS	n/a	n/a	n/a	n/a	n/a	n/a	n/a	n/a
369.6189	0.5666	COLOR_NAME	69	Incongruent	żółty	yellow	niebieski	blue	hit	n/a
370.1688	n/a	RESPONSE	n/a	n/a	n/a	n/a	n/a	n/a	n/a	yellow
370.1856	1.0	ITI	n/a	n/a	n/a	n/a	n/a	n/a	n/a	n/a
371.1856	0.5	FIXCROSS	n/a	n/a	n/a	n/a	n/a	n/a	n/a	n/a
371.6856	0.75	COLOR_NAME	70	Neutral	zielony	green	Neutral	Neutral	hit	n/a
372.4233	n/a	RESPONSE	n/a	n/a	n/a	n/a	n/a	n/a	n/a	green
372.4355	1.0	ITI	n/a	n/a	n/a	n/a	n/a	n/a	n/a	n/a
373.4355	0.5	FIXCROSS	n/a	n/a	n/a	n/a	n/a	n/a	n/a	n/a
373.9355	0.7833	COLOR_NAME	71	Incongruent	zielony	green	niebieski	blue	hit	n/a
374.7095	n/a	RESPONSE	n/a	n/a	n/a	n/a	n/a	n/a	n/a	green
374.7188	1.0	ITI	n/a	n/a	n/a	n/a	n/a	n/a	n/a	n/a
375.7188	0.5	FIXCROSS	n/a	n/a	n/a	n/a	n/a	n/a	n/a	n/a
376.2188	0.6666	COLOR_NAME	72	Incongruent	żółty	yellow	czerwony	red	hit	n/a
376.868	n/a	RESPONSE	n/a	n/a	n/a	n/a	n/a	n/a	n/a	yellow
376.8855	1.0	ITI	n/a	n/a	n/a	n/a	n/a	n/a	n/a	n/a
379.1544	n/a	RESPONSE	n/a	n/a	n/a	n/a	n/a	n/a	n/a	n/a
