onset	duration	trial_type	trial_number	stroop_condition	stim_text(PL)	stim_text(eng)	stim_color(PL)	stim_color(eng)	response_type	response_color
0.0	n/a	RESPONSE	n/a	n/a	n/a	n/a	n/a	n/a	n/a	n/a
0.0571	1.0334	ITI	n/a	n/a	n/a	n/a	n/a	n/a	n/a	n/a
1.0905	0.5167	FIXCROSS	n/a	n/a	n/a	n/a	n/a	n/a	n/a	n/a
1.6071	1.6834	T_INK	1	Neutral	xxxxxxxx	xxxxxxxx	zielony	green	hit	n/a
3.2605	n/a	RESPONSE	n/a	n/a	n/a	n/a	n/a	n/a	n/a	green
3.2905	0.5167	FEEDBACK	n/a	n/a	n/a	n/a	n/a	n/a	n/a	n/a
3.8072	1.0167	ITI	n/a	n/a	n/a	n/a	n/a	n/a	n/a	n/a
4.8238	0.5167	FIXCROSS	n/a	n/a	n/a	n/a	n/a	n/a	n/a	n/a
5.3405	0.8	T_INK	2	Neutral	xxxxxxxxx	xxxxxxxxx	czerwony	red	hit	n/a
6.1055	n/a	RESPONSE	n/a	n/a	n/a	n/a	n/a	n/a	n/a	red
6.1405	0.5167	FEEDBACK	n/a	n/a	n/a	n/a	n/a	n/a	n/a	n/a
6.6572	1.0167	ITI	n/a	n/a	n/a	n/a	n/a	n/a	n/a	n/a
7.6739	0.5167	FIXCROSS	n/a	n/a	n/a	n/a	n/a	n/a	n/a	n/a
8.1905	0.85	T_INK	3	Neutral	xxxxxxx	xxxxxxx	żółty	yellow	hit	n/a
9.0143	n/a	RESPONSE	n/a	n/a	n/a	n/a	n/a	n/a	n/a	yellow
9.0405	0.5167	FEEDBACK	n/a	n/a	n/a	n/a	n/a	n/a	n/a	n/a
9.5572	1.0167	ITI	n/a	n/a	n/a	n/a	n/a	n/a	n/a	n/a
10.5739	0.5167	FIXCROSS	n/a	n/a	n/a	n/a	n/a	n/a	n/a	n/a
11.0906	0.9167	T_INK	4	Incongruent	zielony	green	niebieski	blue	hit	n/a
11.9712	n/a	RESPONSE	n/a	n/a	n/a	n/a	n/a	n/a	n/a	blue
12.0072	0.5167	FEEDBACK	n/a	n/a	n/a	n/a	n/a	n/a	n/a	n/a
12.5239	1.0167	ITI	n/a	n/a	n/a	n/a	n/a	n/a	n/a	n/a
13.5406	0.5167	FIXCROSS	n/a	n/a	n/a	n/a	n/a	n/a	n/a	n/a
14.0573	0.8667	T_INK	5	Incongruent	czerwony	red	niebieski	blue	hit	n/a
14.8959	n/a	RESPONSE	n/a	n/a	n/a	n/a	n/a	n/a	n/a	blue
14.9239	0.5167	FEEDBACK	n/a	n/a	n/a	n/a	n/a	n/a	n/a	n/a
15.4406	1.0167	ITI	n/a	n/a	n/a	n/a	n/a	n/a	n/a	n/a
16.4573	0.5167	FIXCROSS	n/a	n/a	n/a	n/a	n/a	n/a	n/a	n/a
16.9739	0.6667	T_INK	6	Neutral	xxxxxxxx	xxxxxxxx	niebieski	blue	hit	n/a
17.613	n/a	RESPONSE	n/a	n/a	n/a	n/a	n/a	n/a	n/a	blue
17.6406	0.5167	FEEDBACK	n/a	n/a	n/a	n/a	n/a	n/a	n/a	n/a
18.1573	1.0167	ITI	n/a	n/a	n/a	n/a	n/a	n/a	n/a	n/a
19.174	0.5167	FIXCROSS	n/a	n/a	n/a	n/a	n/a	n/a	n/a	n/a
19.6906	0.7667	T_INK	7	Incongruent	czerwony	red	zielony	green	hit	n/a
20.426	n/a	RESPONSE	n/a	n/a	n/a	n/a	n/a	n/a	n/a	green
20.4573	0.5167	FEEDBACK	n/a	n/a	n/a	n/a	n/a	n/a	n/a	n/a
20.974	1.0167	ITI	n/a	n/a	n/a	n/a	n/a	n/a	n/a	n/a
21.9907	0.5167	FIXCROSS	n/a	n/a	n/a	n/a	n/a	n/a	n/a	n/a
22.5073	0.45	T_INK	8	Neutral	xxxxxxxxx	xxxxxxxxx	zielony	green	hit	n/a
22.9353	n/a	RESPONSE	n/a	n/a	n/a	n/a	n/a	n/a	n/a	green
22.9574	0.5167	FEEDBACK	n/a	n/a	n/a	n/a	n/a	n/a	n/a	n/a
23.474	1.0167	ITI	n/a	n/a	n/a	n/a	n/a	n/a	n/a	n/a
24.4907	0.5167	FIXCROSS	n/a	n/a	n/a	n/a	n/a	n/a	n/a	n/a
25.0074	0.7334	T_INK	9	Neutral	xxxxx	xxxxx	niebieski	blue	hit	n/a
25.7163	n/a	RESPONSE	n/a	n/a	n/a	n/a	n/a	n/a	n/a	blue
25.7407	0.5167	FEEDBACK	n/a	n/a	n/a	n/a	n/a	n/a	n/a	n/a
26.2574	1.0167	ITI	n/a	n/a	n/a	n/a	n/a	n/a	n/a	n/a
27.2741	0.5167	FIXCROSS	n/a	n/a	n/a	n/a	n/a	n/a	n/a	n/a
27.7907	0.6833	T_INK	10	Incongruent	niebieski	blue	żółty	yellow	hit	n/a
28.4494	n/a	RESPONSE	n/a	n/a	n/a	n/a	n/a	n/a	n/a	yellow
28.4741	0.5167	FEEDBACK	n/a	n/a	n/a	n/a	n/a	n/a	n/a	n/a
28.9908	1.0167	ITI	n/a	n/a	n/a	n/a	n/a	n/a	n/a	n/a
30.0074	0.5167	FIXCROSS	n/a	n/a	n/a	n/a	n/a	n/a	n/a	n/a
30.5241	0.7833	T_INK	11	Incongruent	niebieski	blue	zielony	green	hit	n/a
31.2783	n/a	RESPONSE	n/a	n/a	n/a	n/a	n/a	n/a	n/a	green
31.3074	0.5167	FEEDBACK	n/a	n/a	n/a	n/a	n/a	n/a	n/a	n/a
31.8241	1.0167	ITI	n/a	n/a	n/a	n/a	n/a	n/a	n/a	n/a
32.8408	0.5167	FIXCROSS	n/a	n/a	n/a	n/a	n/a	n/a	n/a	n/a
33.3575	0.9667	T_INK	12	Incongruent	zielony	green	czerwony	red	hit	n/a
34.2991	n/a	RESPONSE	n/a	n/a	n/a	n/a	n/a	n/a	n/a	red
34.3241	0.5167	FEEDBACK	n/a	n/a	n/a	n/a	n/a	n/a	n/a	n/a
34.8408	1.0333	ITI	n/a	n/a	n/a	n/a	n/a	n/a	n/a	n/a
42.4023	n/a	RESPONSE	n/a	n/a	n/a	n/a	n/a	n/a	n/a	n/a
42.4575	1.0167	ITI	n/a	n/a	n/a	n/a	n/a	n/a	n/a	n/a
43.4742	0.5167	FIXCROSS	n/a	n/a	n/a	n/a	n/a	n/a	n/a	n/a
43.9909	0.7167	INK	1	Neutral	xxxxxxx	xxxxxxx	niebieski	blue	hit	n/a
44.6878	n/a	RESPONSE	n/a	n/a	n/a	n/a	n/a	n/a	n/a	blue
44.7076	1.0167	ITI	n/a	n/a	n/a	n/a	n/a	n/a	n/a	n/a
45.7243	0.5167	FIXCROSS	n/a	n/a	n/a	n/a	n/a	n/a	n/a	n/a
46.2409	0.5167	INK	2	Neutral	xxxxxxx	xxxxxxx	niebieski	blue	hit	n/a
46.7337	n/a	RESPONSE	n/a	n/a	n/a	n/a	n/a	n/a	n/a	blue
46.7576	1.0167	ITI	n/a	n/a	n/a	n/a	n/a	n/a	n/a	n/a
47.7743	0.5167	FIXCROSS	n/a	n/a	n/a	n/a	n/a	n/a	n/a	n/a
48.2909	0.6	INK	3	Incongruent	niebieski	blue	żółty	yellow	hit	n/a
48.8594	n/a	RESPONSE	n/a	n/a	n/a	n/a	n/a	n/a	n/a	yellow
48.8909	1.0167	ITI	n/a	n/a	n/a	n/a	n/a	n/a	n/a	n/a
49.9076	0.5167	FIXCROSS	n/a	n/a	n/a	n/a	n/a	n/a	n/a	n/a
50.4243	0.6167	INK	4	Incongruent	czerwony	red	żółty	yellow	hit	n/a
51.017	n/a	RESPONSE	n/a	n/a	n/a	n/a	n/a	n/a	n/a	yellow
51.041	1.0167	ITI	n/a	n/a	n/a	n/a	n/a	n/a	n/a	n/a
52.0577	0.5167	FIXCROSS	n/a	n/a	n/a	n/a	n/a	n/a	n/a	n/a
52.5743	0.4333	INK	5	Neutral	xxxxxxx	xxxxxxx	żółty	yellow	hit	n/a
52.983	n/a	RESPONSE	n/a	n/a	n/a	n/a	n/a	n/a	n/a	yellow
53.0077	1.0167	ITI	n/a	n/a	n/a	n/a	n/a	n/a	n/a	n/a
54.0243	0.5167	FIXCROSS	n/a	n/a	n/a	n/a	n/a	n/a	n/a	n/a
54.541	0.5833	INK	6	Neutral	xxxxxxxxx	xxxxxxxxx	zielony	green	hit	n/a
55.0926	n/a	RESPONSE	n/a	n/a	n/a	n/a	n/a	n/a	n/a	green
55.1243	1.0167	ITI	n/a	n/a	n/a	n/a	n/a	n/a	n/a	n/a
56.141	0.5167	FIXCROSS	n/a	n/a	n/a	n/a	n/a	n/a	n/a	n/a
56.6577	0.4667	INK	7	Incongruent	czerwony	red	zielony	green	hit	n/a
57.1065	n/a	RESPONSE	n/a	n/a	n/a	n/a	n/a	n/a	n/a	green
57.1244	1.0167	ITI	n/a	n/a	n/a	n/a	n/a	n/a	n/a	n/a
58.141	0.5167	FIXCROSS	n/a	n/a	n/a	n/a	n/a	n/a	n/a	n/a
58.6577	0.5833	INK	8	Incongruent	czerwony	red	niebieski	blue	hit	n/a
59.2163	n/a	RESPONSE	n/a	n/a	n/a	n/a	n/a	n/a	n/a	blue
59.2411	1.0167	ITI	n/a	n/a	n/a	n/a	n/a	n/a	n/a	n/a
60.2577	0.5167	FIXCROSS	n/a	n/a	n/a	n/a	n/a	n/a	n/a	n/a
60.7744	0.4667	INK	9	Neutral	xxxxx	xxxxx	niebieski	blue	hit	n/a
61.214	n/a	RESPONSE	n/a	n/a	n/a	n/a	n/a	n/a	n/a	blue
61.2411	1.0167	ITI	n/a	n/a	n/a	n/a	n/a	n/a	n/a	n/a
62.2577	0.5167	FIXCROSS	n/a	n/a	n/a	n/a	n/a	n/a	n/a	n/a
62.7744	0.5	INK	10	Neutral	xxxxxxxx	xxxxxxxx	zielony	green	incorrect	n/a
63.2439	n/a	RESPONSE	n/a	n/a	n/a	n/a	n/a	n/a	n/a	yellow
63.2744	1.0167	ITI	n/a	n/a	n/a	n/a	n/a	n/a	n/a	n/a
64.2911	0.5167	FIXCROSS	n/a	n/a	n/a	n/a	n/a	n/a	n/a	n/a
64.8078	0.6667	INK	11	Incongruent	zielony	green	niebieski	blue	hit	n/a
65.4495	n/a	RESPONSE	n/a	n/a	n/a	n/a	n/a	n/a	n/a	blue
65.4745	1.0167	ITI	n/a	n/a	n/a	n/a	n/a	n/a	n/a	n/a
66.4911	0.5167	FIXCROSS	n/a	n/a	n/a	n/a	n/a	n/a	n/a	n/a
67.0078	0.7667	INK	12	Incongruent	żółty	yellow	zielony	green	hit	n/a
67.751	n/a	RESPONSE	n/a	n/a	n/a	n/a	n/a	n/a	n/a	green
67.7745	1.0167	ITI	n/a	n/a	n/a	n/a	n/a	n/a	n/a	n/a
68.7912	0.5167	FIXCROSS	n/a	n/a	n/a	n/a	n/a	n/a	n/a	n/a
69.3078	0.7667	INK	13	Incongruent	niebieski	blue	żółty	yellow	hit	n/a
70.0525	n/a	RESPONSE	n/a	n/a	n/a	n/a	n/a	n/a	n/a	yellow
70.0745	1.0167	ITI	n/a	n/a	n/a	n/a	n/a	n/a	n/a	n/a
71.0912	0.5167	FIXCROSS	n/a	n/a	n/a	n/a	n/a	n/a	n/a	n/a
71.6078	0.6	INK	14	Incongruent	niebieski	blue	zielony	green	hit	n/a
72.1782	n/a	RESPONSE	n/a	n/a	n/a	n/a	n/a	n/a	n/a	green
72.2079	1.0167	ITI	n/a	n/a	n/a	n/a	n/a	n/a	n/a	n/a
73.2245	0.5167	FIXCROSS	n/a	n/a	n/a	n/a	n/a	n/a	n/a	n/a
73.7412	0.7167	INK	15	Incongruent	żółty	yellow	czerwony	red	hit	n/a
74.4318	n/a	RESPONSE	n/a	n/a	n/a	n/a	n/a	n/a	n/a	red
74.4579	1.0167	ITI	n/a	n/a	n/a	n/a	n/a	n/a	n/a	n/a
75.4746	0.5167	FIXCROSS	n/a	n/a	n/a	n/a	n/a	n/a	n/a	n/a
75.9912	0.5	INK	16	Incongruent	zielony	green	czerwony	red	hit	n/a
76.4615	n/a	RESPONSE	n/a	n/a	n/a	n/a	n/a	n/a	n/a	red
76.4912	1.0167	ITI	n/a	n/a	n/a	n/a	n/a	n/a	n/a	n/a
77.5079	0.5167	FIXCROSS	n/a	n/a	n/a	n/a	n/a	n/a	n/a	n/a
78.0246	0.6	INK	17	Incongruent	zielony	green	żółty	yellow	hit	n/a
78.6033	n/a	RESPONSE	n/a	n/a	n/a	n/a	n/a	n/a	n/a	yellow
78.6246	1.0167	ITI	n/a	n/a	n/a	n/a	n/a	n/a	n/a	n/a
79.6413	0.5167	FIXCROSS	n/a	n/a	n/a	n/a	n/a	n/a	n/a	n/a
80.1579	0.4167	INK	18	Incongruent	zielony	green	żółty	yellow	hit	n/a
80.5532	n/a	RESPONSE	n/a	n/a	n/a	n/a	n/a	n/a	n/a	yellow
80.5746	1.0167	ITI	n/a	n/a	n/a	n/a	n/a	n/a	n/a	n/a
81.5913	0.5167	FIXCROSS	n/a	n/a	n/a	n/a	n/a	n/a	n/a	n/a
82.1079	0.4834	INK	19	Neutral	xxxxxxxxx	xxxxxxxxx	zielony	green	hit	n/a
82.567	n/a	RESPONSE	n/a	n/a	n/a	n/a	n/a	n/a	n/a	green
82.5913	1.0167	ITI	n/a	n/a	n/a	n/a	n/a	n/a	n/a	n/a
83.608	0.5167	FIXCROSS	n/a	n/a	n/a	n/a	n/a	n/a	n/a	n/a
84.1246	0.4833	INK	20	Neutral	xxxxx	xxxxx	czerwony	red	incorrect	n/a
84.5809	n/a	RESPONSE	n/a	n/a	n/a	n/a	n/a	n/a	n/a	blue
84.608	1.0167	ITI	n/a	n/a	n/a	n/a	n/a	n/a	n/a	n/a
85.6247	0.5167	FIXCROSS	n/a	n/a	n/a	n/a	n/a	n/a	n/a	n/a
86.1413	0.65	INK	21	Neutral	xxxxxxx	xxxxxxx	czerwony	red	hit	n/a
86.7705	n/a	RESPONSE	n/a	n/a	n/a	n/a	n/a	n/a	n/a	red
86.7913	1.0167	ITI	n/a	n/a	n/a	n/a	n/a	n/a	n/a	n/a
87.808	0.5167	FIXCROSS	n/a	n/a	n/a	n/a	n/a	n/a	n/a	n/a
88.3247	0.45	INK	22	Incongruent	niebieski	blue	czerwony	red	hit	n/a
88.7523	n/a	RESPONSE	n/a	n/a	n/a	n/a	n/a	n/a	n/a	red
88.7747	1.0167	ITI	n/a	n/a	n/a	n/a	n/a	n/a	n/a	n/a
89.7914	0.5167	FIXCROSS	n/a	n/a	n/a	n/a	n/a	n/a	n/a	n/a
90.308	0.5667	INK	23	Neutral	xxxxxxxxx	xxxxxxxxx	żółty	yellow	hit	n/a
90.8461	n/a	RESPONSE	n/a	n/a	n/a	n/a	n/a	n/a	n/a	yellow
90.8747	1.0167	ITI	n/a	n/a	n/a	n/a	n/a	n/a	n/a	n/a
91.8914	0.5167	FIXCROSS	n/a	n/a	n/a	n/a	n/a	n/a	n/a	n/a
92.4081	0.7	INK	24	Neutral	xxxxxxxxx	xxxxxxxxx	czerwony	red	hit	n/a
93.0837	n/a	RESPONSE	n/a	n/a	n/a	n/a	n/a	n/a	n/a	red
93.1081	1.0167	ITI	n/a	n/a	n/a	n/a	n/a	n/a	n/a	n/a
94.1247	0.5167	FIXCROSS	n/a	n/a	n/a	n/a	n/a	n/a	n/a	n/a
94.6414	0.6667	INK	25	Neutral	xxxxxxxx	xxxxxxxx	niebieski	blue	hit	n/a
95.2893	n/a	RESPONSE	n/a	n/a	n/a	n/a	n/a	n/a	n/a	blue
95.3081	1.0167	ITI	n/a	n/a	n/a	n/a	n/a	n/a	n/a	n/a
96.3248	0.5167	FIXCROSS	n/a	n/a	n/a	n/a	n/a	n/a	n/a	n/a
96.8414	0.4833	INK	26	Incongruent	czerwony	red	żółty	yellow	hit	n/a
97.3031	n/a	RESPONSE	n/a	n/a	n/a	n/a	n/a	n/a	n/a	yellow
97.3248	1.0167	ITI	n/a	n/a	n/a	n/a	n/a	n/a	n/a	n/a
98.3415	0.5167	FIXCROSS	n/a	n/a	n/a	n/a	n/a	n/a	n/a	n/a
98.8581	0.5	INK	27	Neutral	xxxxxxx	xxxxxxx	czerwony	red	hit	n/a
99.333	n/a	RESPONSE	n/a	n/a	n/a	n/a	n/a	n/a	n/a	red
99.3581	1.0167	ITI	n/a	n/a	n/a	n/a	n/a	n/a	n/a	n/a
100.3748	0.5167	FIXCROSS	n/a	n/a	n/a	n/a	n/a	n/a	n/a	n/a
100.8915	0.4167	INK	28	Incongruent	niebieski	blue	czerwony	red	hit	n/a
101.2829	n/a	RESPONSE	n/a	n/a	n/a	n/a	n/a	n/a	n/a	red
101.3082	1.0167	ITI	n/a	n/a	n/a	n/a	n/a	n/a	n/a	n/a
102.3248	0.5167	FIXCROSS	n/a	n/a	n/a	n/a	n/a	n/a	n/a	n/a
102.8415	0.6333	INK	29	Incongruent	zielony	green	niebieski	blue	hit	n/a
103.4565	n/a	RESPONSE	n/a	n/a	n/a	n/a	n/a	n/a	n/a	blue
103.4748	1.0167	ITI	n/a	n/a	n/a	n/a	n/a	n/a	n/a	n/a
104.4915	0.5167	FIXCROSS	n/a	n/a	n/a	n/a	n/a	n/a	n/a	n/a
105.0082	0.6167	INK	30	Neutral	xxxxxxxxx	xxxxxxxxx	żółty	yellow	hit	n/a
105.5982	n/a	RESPONSE	n/a	n/a	n/a	n/a	n/a	n/a	n/a	yellow
105.6249	1.0167	ITI	n/a	n/a	n/a	n/a	n/a	n/a	n/a	n/a
106.6415	0.5167	FIXCROSS	n/a	n/a	n/a	n/a	n/a	n/a	n/a	n/a
107.1582	0.4167	INK	31	Incongruent	zielony	green	niebieski	blue	hit	n/a
107.5481	n/a	RESPONSE	n/a	n/a	n/a	n/a	n/a	n/a	n/a	blue
107.5749	1.0167	ITI	n/a	n/a	n/a	n/a	n/a	n/a	n/a	n/a
108.5916	0.5167	FIXCROSS	n/a	n/a	n/a	n/a	n/a	n/a	n/a	n/a
109.1082	0.5167	INK	32	Neutral	xxxxxxxx	xxxxxxxx	żółty	yellow	hit	n/a
109.5939	n/a	RESPONSE	n/a	n/a	n/a	n/a	n/a	n/a	n/a	yellow
109.6249	1.0167	ITI	n/a	n/a	n/a	n/a	n/a	n/a	n/a	n/a
110.6416	0.5167	FIXCROSS	n/a	n/a	n/a	n/a	n/a	n/a	n/a	n/a
111.1582	0.4667	INK	33	Incongruent	czerwony	red	niebieski	blue	hit	n/a
111.5917	n/a	RESPONSE	n/a	n/a	n/a	n/a	n/a	n/a	n/a	blue
111.6249	1.0167	ITI	n/a	n/a	n/a	n/a	n/a	n/a	n/a	n/a
112.6416	0.5167	FIXCROSS	n/a	n/a	n/a	n/a	n/a	n/a	n/a	n/a
113.1583	0.6	INK	34	Neutral	xxxxx	xxxxx	zielony	green	hit	n/a
113.7334	n/a	RESPONSE	n/a	n/a	n/a	n/a	n/a	n/a	n/a	green
113.7583	1.0167	ITI	n/a	n/a	n/a	n/a	n/a	n/a	n/a	n/a
114.7749	0.5167	FIXCROSS	n/a	n/a	n/a	n/a	n/a	n/a	n/a	n/a
115.2916	0.4167	INK	35	Neutral	xxxxxxxxx	xxxxxxxxx	czerwony	red	hit	n/a
115.6832	n/a	RESPONSE	n/a	n/a	n/a	n/a	n/a	n/a	n/a	red
115.7083	1.0167	ITI	n/a	n/a	n/a	n/a	n/a	n/a	n/a	n/a
116.725	0.5167	FIXCROSS	n/a	n/a	n/a	n/a	n/a	n/a	n/a	n/a
117.2417	0.6	INK	36	Neutral	xxxxx	xxxxx	niebieski	blue	hit	n/a
117.809	n/a	RESPONSE	n/a	n/a	n/a	n/a	n/a	n/a	n/a	blue
117.8416	1.0167	ITI	n/a	n/a	n/a	n/a	n/a	n/a	n/a	n/a
118.8583	0.5167	FIXCROSS	n/a	n/a	n/a	n/a	n/a	n/a	n/a	n/a
119.375	0.7167	INK	37	Neutral	xxxxx	xxxxx	zielony	green	hit	n/a
120.0626	n/a	RESPONSE	n/a	n/a	n/a	n/a	n/a	n/a	n/a	green
120.0917	1.0167	ITI	n/a	n/a	n/a	n/a	n/a	n/a	n/a	n/a
121.1084	0.5167	FIXCROSS	n/a	n/a	n/a	n/a	n/a	n/a	n/a	n/a
121.625	0.6167	INK	38	Incongruent	żółty	yellow	czerwony	red	hit	n/a
122.2202	n/a	RESPONSE	n/a	n/a	n/a	n/a	n/a	n/a	n/a	red
122.2417	1.0167	ITI	n/a	n/a	n/a	n/a	n/a	n/a	n/a	n/a
123.2584	0.5167	FIXCROSS	n/a	n/a	n/a	n/a	n/a	n/a	n/a	n/a
123.7751	0.5333	INK	39	Neutral	xxxxxxxxx	xxxxxxxxx	żółty	yellow	hit	n/a
124.2819	n/a	RESPONSE	n/a	n/a	n/a	n/a	n/a	n/a	n/a	yellow
124.3084	1.0167	ITI	n/a	n/a	n/a	n/a	n/a	n/a	n/a	n/a
125.3251	0.5167	FIXCROSS	n/a	n/a	n/a	n/a	n/a	n/a	n/a	n/a
125.8417	0.5667	INK	40	Neutral	xxxxxxxx	xxxxxxxx	zielony	green	hit	n/a
126.3758	n/a	RESPONSE	n/a	n/a	n/a	n/a	n/a	n/a	n/a	green
126.4084	1.0167	ITI	n/a	n/a	n/a	n/a	n/a	n/a	n/a	n/a
127.4251	0.5167	FIXCROSS	n/a	n/a	n/a	n/a	n/a	n/a	n/a	n/a
127.9418	0.6667	INK	41	Incongruent	zielony	green	żółty	yellow	hit	n/a
128.5813	n/a	RESPONSE	n/a	n/a	n/a	n/a	n/a	n/a	n/a	yellow
128.6084	1.0167	ITI	n/a	n/a	n/a	n/a	n/a	n/a	n/a	n/a
129.6251	0.5167	FIXCROSS	n/a	n/a	n/a	n/a	n/a	n/a	n/a	n/a
130.1418	0.5667	INK	42	Incongruent	niebieski	blue	zielony	green	hit	n/a
130.691	n/a	RESPONSE	n/a	n/a	n/a	n/a	n/a	n/a	n/a	green
130.7084	1.0167	ITI	n/a	n/a	n/a	n/a	n/a	n/a	n/a	n/a
131.7251	0.5167	FIXCROSS	n/a	n/a	n/a	n/a	n/a	n/a	n/a	n/a
132.2418	0.4167	INK	43	Incongruent	niebieski	blue	zielony	green	hit	n/a
132.625	n/a	RESPONSE	n/a	n/a	n/a	n/a	n/a	n/a	n/a	green
132.6585	1.0167	ITI	n/a	n/a	n/a	n/a	n/a	n/a	n/a	n/a
133.6751	0.5167	FIXCROSS	n/a	n/a	n/a	n/a	n/a	n/a	n/a	n/a
134.1918	0.6667	INK	44	Incongruent	żółty	yellow	niebieski	blue	hit	n/a
134.8306	n/a	RESPONSE	n/a	n/a	n/a	n/a	n/a	n/a	n/a	blue
134.8585	1.0167	ITI	n/a	n/a	n/a	n/a	n/a	n/a	n/a	n/a
135.8752	0.5167	FIXCROSS	n/a	n/a	n/a	n/a	n/a	n/a	n/a	n/a
136.3918	0.5333	INK	45	Neutral	xxxxxxxxx	xxxxxxxxx	czerwony	red	hit	n/a
136.8923	n/a	RESPONSE	n/a	n/a	n/a	n/a	n/a	n/a	n/a	red
136.9252	1.0167	ITI	n/a	n/a	n/a	n/a	n/a	n/a	n/a	n/a
137.9419	0.5167	FIXCROSS	n/a	n/a	n/a	n/a	n/a	n/a	n/a	n/a
138.4585	0.4333	INK	46	Incongruent	zielony	green	czerwony	red	hit	n/a
138.8742	n/a	RESPONSE	n/a	n/a	n/a	n/a	n/a	n/a	n/a	red
138.8919	1.0167	ITI	n/a	n/a	n/a	n/a	n/a	n/a	n/a	n/a
139.9085	0.5167	FIXCROSS	n/a	n/a	n/a	n/a	n/a	n/a	n/a	n/a
140.4252	0.55	INK	47	Neutral	xxxxxxxxx	xxxxxxxxx	zielony	green	hit	n/a
140.9519	n/a	RESPONSE	n/a	n/a	n/a	n/a	n/a	n/a	n/a	green
140.9752	1.0167	ITI	n/a	n/a	n/a	n/a	n/a	n/a	n/a	n/a
141.9919	0.5167	FIXCROSS	n/a	n/a	n/a	n/a	n/a	n/a	n/a	n/a
142.5086	0.55	INK	48	Neutral	xxxxx	xxxxx	niebieski	blue	hit	n/a
143.0298	n/a	RESPONSE	n/a	n/a	n/a	n/a	n/a	n/a	n/a	blue
143.0586	1.0167	ITI	n/a	n/a	n/a	n/a	n/a	n/a	n/a	n/a
144.0752	0.5167	FIXCROSS	n/a	n/a	n/a	n/a	n/a	n/a	n/a	n/a
144.5919	0.5	INK	49	Incongruent	żółty	yellow	zielony	green	hit	n/a
145.0596	n/a	RESPONSE	n/a	n/a	n/a	n/a	n/a	n/a	n/a	green
145.0919	1.0167	ITI	n/a	n/a	n/a	n/a	n/a	n/a	n/a	n/a
146.1086	0.5167	FIXCROSS	n/a	n/a	n/a	n/a	n/a	n/a	n/a	n/a
146.6253	0.6167	INK	50	Incongruent	niebieski	blue	czerwony	red	hit	n/a
147.2173	n/a	RESPONSE	n/a	n/a	n/a	n/a	n/a	n/a	n/a	red
147.242	1.0167	ITI	n/a	n/a	n/a	n/a	n/a	n/a	n/a	n/a
148.2586	0.5167	FIXCROSS	n/a	n/a	n/a	n/a	n/a	n/a	n/a	n/a
148.7753	0.5	INK	51	Neutral	xxxxxxxx	xxxxxxxx	żółty	yellow	hit	n/a
149.247	n/a	RESPONSE	n/a	n/a	n/a	n/a	n/a	n/a	n/a	yellow
149.2753	1.0167	ITI	n/a	n/a	n/a	n/a	n/a	n/a	n/a	n/a
150.292	0.5167	FIXCROSS	n/a	n/a	n/a	n/a	n/a	n/a	n/a	n/a
150.8087	0.45	INK	52	Incongruent	niebieski	blue	żółty	yellow	hit	n/a
151.2289	n/a	RESPONSE	n/a	n/a	n/a	n/a	n/a	n/a	n/a	yellow
151.2587	1.0167	ITI	n/a	n/a	n/a	n/a	n/a	n/a	n/a	n/a
152.2753	0.5167	FIXCROSS	n/a	n/a	n/a	n/a	n/a	n/a	n/a	n/a
152.792	0.6	INK	53	Neutral	xxxxxxxx	xxxxxxxx	niebieski	blue	hit	n/a
153.3706	n/a	RESPONSE	n/a	n/a	n/a	n/a	n/a	n/a	n/a	blue
153.392	1.0167	ITI	n/a	n/a	n/a	n/a	n/a	n/a	n/a	n/a
154.4087	0.5167	FIXCROSS	n/a	n/a	n/a	n/a	n/a	n/a	n/a	n/a
154.9254	0.5333	INK	54	Incongruent	czerwony	red	żółty	yellow	hit	n/a
155.4323	n/a	RESPONSE	n/a	n/a	n/a	n/a	n/a	n/a	n/a	yellow
155.4587	1.0167	ITI	n/a	n/a	n/a	n/a	n/a	n/a	n/a	n/a
156.4754	0.5167	FIXCROSS	n/a	n/a	n/a	n/a	n/a	n/a	n/a	n/a
156.9921	0.5667	INK	55	Incongruent	zielony	green	czerwony	red	hit	n/a
157.526	n/a	RESPONSE	n/a	n/a	n/a	n/a	n/a	n/a	n/a	red
157.5587	1.0167	ITI	n/a	n/a	n/a	n/a	n/a	n/a	n/a	n/a
158.5754	0.5167	FIXCROSS	n/a	n/a	n/a	n/a	n/a	n/a	n/a	n/a
159.0921	0.4333	INK	56	Neutral	xxxxx	xxxxx	czerwony	red	hit	n/a
159.492	n/a	RESPONSE	n/a	n/a	n/a	n/a	n/a	n/a	n/a	red
159.5254	1.0167	ITI	n/a	n/a	n/a	n/a	n/a	n/a	n/a	n/a
160.5421	0.5167	FIXCROSS	n/a	n/a	n/a	n/a	n/a	n/a	n/a	n/a
161.0588	0.55	INK	57	Incongruent	czerwony	red	zielony	green	hit	n/a
161.5856	n/a	RESPONSE	n/a	n/a	n/a	n/a	n/a	n/a	n/a	green
161.6088	1.0167	ITI	n/a	n/a	n/a	n/a	n/a	n/a	n/a	n/a
162.6254	0.5167	FIXCROSS	n/a	n/a	n/a	n/a	n/a	n/a	n/a	n/a
163.1421	0.3833	INK	58	Neutral	xxxxxxxx	xxxxxxxx	zielony	green	hit	n/a
163.5036	n/a	RESPONSE	n/a	n/a	n/a	n/a	n/a	n/a	n/a	green
163.5254	1.0167	ITI	n/a	n/a	n/a	n/a	n/a	n/a	n/a	n/a
164.5421	0.5167	FIXCROSS	n/a	n/a	n/a	n/a	n/a	n/a	n/a	n/a
165.0588	0.4833	INK	59	Neutral	xxxxxxxx	xxxxxxxx	żółty	yellow	hit	n/a
165.5175	n/a	RESPONSE	n/a	n/a	n/a	n/a	n/a	n/a	n/a	yellow
165.5421	1.0167	ITI	n/a	n/a	n/a	n/a	n/a	n/a	n/a	n/a
166.5588	0.5167	FIXCROSS	n/a	n/a	n/a	n/a	n/a	n/a	n/a	n/a
167.0755	0.5333	INK	60	Neutral	xxxxxxxx	xxxxxxxx	niebieski	blue	incorrect	n/a
167.5792	n/a	RESPONSE	n/a	n/a	n/a	n/a	n/a	n/a	n/a	red
167.6088	1.0167	ITI	n/a	n/a	n/a	n/a	n/a	n/a	n/a	n/a
167.6591	n/a	RESPONSE	n/a	n/a	n/a	n/a	n/a	n/a	n/a	blue
168.6255	0.5167	FIXCROSS	n/a	n/a	n/a	n/a	n/a	n/a	n/a	n/a
169.1422	0.3667	INK	61	Neutral	xxxxxxx	xxxxxxx	niebieski	blue	hit	n/a
169.4812	n/a	RESPONSE	n/a	n/a	n/a	n/a	n/a	n/a	n/a	blue
169.5088	1.0167	ITI	n/a	n/a	n/a	n/a	n/a	n/a	n/a	n/a
170.5255	0.5167	FIXCROSS	n/a	n/a	n/a	n/a	n/a	n/a	n/a	n/a
171.0422	0.4833	INK	62	Incongruent	żółty	yellow	czerwony	red	hit	n/a
171.4949	n/a	RESPONSE	n/a	n/a	n/a	n/a	n/a	n/a	n/a	red
171.5255	1.0167	ITI	n/a	n/a	n/a	n/a	n/a	n/a	n/a	n/a
172.5422	0.5167	FIXCROSS	n/a	n/a	n/a	n/a	n/a	n/a	n/a	n/a
173.0589	0.45	INK	63	Neutral	xxxxx	xxxxx	zielony	green	hit	n/a
173.4768	n/a	RESPONSE	n/a	n/a	n/a	n/a	n/a	n/a	n/a	green
173.5089	1.0167	ITI	n/a	n/a	n/a	n/a	n/a	n/a	n/a	n/a
174.5256	0.5167	FIXCROSS	n/a	n/a	n/a	n/a	n/a	n/a	n/a	n/a
175.0422	0.7	INK	64	Incongruent	żółty	yellow	zielony	green	hit	n/a
175.7144	n/a	RESPONSE	n/a	n/a	n/a	n/a	n/a	n/a	n/a	green
175.7422	1.0167	ITI	n/a	n/a	n/a	n/a	n/a	n/a	n/a	n/a
176.7589	0.5167	FIXCROSS	n/a	n/a	n/a	n/a	n/a	n/a	n/a	n/a
177.2756	0.45	INK	65	Neutral	xxxxxxx	xxxxxxx	żółty	yellow	hit	n/a
177.6964	n/a	RESPONSE	n/a	n/a	n/a	n/a	n/a	n/a	n/a	yellow
177.7256	1.0167	ITI	n/a	n/a	n/a	n/a	n/a	n/a	n/a	n/a
178.7423	0.5167	FIXCROSS	n/a	n/a	n/a	n/a	n/a	n/a	n/a	n/a
179.2589	0.5667	INK	66	Incongruent	czerwony	red	zielony	green	hit	n/a
179.806	n/a	RESPONSE	n/a	n/a	n/a	n/a	n/a	n/a	n/a	green
179.8256	1.0167	ITI	n/a	n/a	n/a	n/a	n/a	n/a	n/a	n/a
180.8423	0.5167	FIXCROSS	n/a	n/a	n/a	n/a	n/a	n/a	n/a	n/a
181.359	0.5167	INK	67	Incongruent	czerwony	red	niebieski	blue	hit	n/a
181.8519	n/a	RESPONSE	n/a	n/a	n/a	n/a	n/a	n/a	n/a	blue
181.8756	1.0167	ITI	n/a	n/a	n/a	n/a	n/a	n/a	n/a	n/a
182.8923	0.5167	FIXCROSS	n/a	n/a	n/a	n/a	n/a	n/a	n/a	n/a
183.409	0.5833	INK	68	Neutral	xxxxxxx	xxxxxxx	czerwony	red	hit	n/a
183.9616	n/a	RESPONSE	n/a	n/a	n/a	n/a	n/a	n/a	n/a	red
183.9923	1.0167	ITI	n/a	n/a	n/a	n/a	n/a	n/a	n/a	n/a
185.009	0.5166	FIXCROSS	n/a	n/a	n/a	n/a	n/a	n/a	n/a	n/a
185.5256	0.5167	INK	69	Neutral	xxxxx	xxxxx	czerwony	red	hit	n/a
186.0233	n/a	RESPONSE	n/a	n/a	n/a	n/a	n/a	n/a	n/a	red
186.0423	1.0167	ITI	n/a	n/a	n/a	n/a	n/a	n/a	n/a	n/a
187.059	0.5167	FIXCROSS	n/a	n/a	n/a	n/a	n/a	n/a	n/a	n/a
187.5757	0.8333	INK	70	Neutral	xxxxxxx	xxxxxxx	żółty	yellow	hit	n/a
188.3888	n/a	RESPONSE	n/a	n/a	n/a	n/a	n/a	n/a	n/a	yellow
188.409	1.0167	ITI	n/a	n/a	n/a	n/a	n/a	n/a	n/a	n/a
189.4257	0.5167	FIXCROSS	n/a	n/a	n/a	n/a	n/a	n/a	n/a	n/a
189.9424	0.6333	INK	71	Incongruent	żółty	yellow	niebieski	blue	hit	n/a
190.5464	n/a	RESPONSE	n/a	n/a	n/a	n/a	n/a	n/a	n/a	blue
190.5757	1.0167	ITI	n/a	n/a	n/a	n/a	n/a	n/a	n/a	n/a
191.5924	0.5167	FIXCROSS	n/a	n/a	n/a	n/a	n/a	n/a	n/a	n/a
192.1091	0.4333	INK	72	Incongruent	żółty	yellow	niebieski	blue	hit	n/a
192.5123	n/a	RESPONSE	n/a	n/a	n/a	n/a	n/a	n/a	n/a	blue
192.5424	1.0833	ITI	n/a	n/a	n/a	n/a	n/a	n/a	n/a	n/a
215.7192	n/a	RESPONSE	n/a	n/a	n/a	n/a	n/a	n/a	n/a	n/a
215.776	1.0167	ITI	n/a	n/a	n/a	n/a	n/a	n/a	n/a	n/a
216.7927	0.5167	FIXCROSS	n/a	n/a	n/a	n/a	n/a	n/a	n/a	n/a
217.3093	0.9333	T_COLOR_NAME	1	Incongruent	niebieski	blue	żółty	yellow	hit	n/a
218.2126	n/a	RESPONSE	n/a	n/a	n/a	n/a	n/a	n/a	n/a	blue
218.2427	0.5167	FEEDBACK	n/a	n/a	n/a	n/a	n/a	n/a	n/a	n/a
218.7593	1.0055	ITI	n/a	n/a	n/a	n/a	n/a	n/a	n/a	n/a
219.7648	0.5112	FIXCROSS	n/a	n/a	n/a	n/a	n/a	n/a	n/a	n/a
220.276	0.9833	T_COLOR_NAME	2	Incongruent	zielony	green	niebieski	blue	hit	n/a
221.2493	n/a	RESPONSE	n/a	n/a	n/a	n/a	n/a	n/a	n/a	green
221.2594	0.5	FEEDBACK	n/a	n/a	n/a	n/a	n/a	n/a	n/a	n/a
221.7594	1.0	ITI	n/a	n/a	n/a	n/a	n/a	n/a	n/a	n/a
222.7594	0.5	FIXCROSS	n/a	n/a	n/a	n/a	n/a	n/a	n/a	n/a
223.2594	0.9167	T_COLOR_NAME	3	Neutral	niebieski	blue	Neutral	Neutral	hit	n/a
224.1582	n/a	RESPONSE	n/a	n/a	n/a	n/a	n/a	n/a	n/a	blue
224.1761	0.5	FEEDBACK	n/a	n/a	n/a	n/a	n/a	n/a	n/a	n/a
224.6761	1.0167	ITI	n/a	n/a	n/a	n/a	n/a	n/a	n/a	n/a
225.6928	0.5167	FIXCROSS	n/a	n/a	n/a	n/a	n/a	n/a	n/a	n/a
226.2094	0.5167	T_COLOR_NAME	4	Neutral	niebieski	blue	Neutral	Neutral	hit	n/a
226.6994	n/a	RESPONSE	n/a	n/a	n/a	n/a	n/a	n/a	n/a	blue
226.7261	0.5167	FEEDBACK	n/a	n/a	n/a	n/a	n/a	n/a	n/a	n/a
227.2428	1.0167	ITI	n/a	n/a	n/a	n/a	n/a	n/a	n/a	n/a
228.2594	0.5167	FIXCROSS	n/a	n/a	n/a	n/a	n/a	n/a	n/a	n/a
228.7761	0.9333	T_COLOR_NAME	5	Incongruent	niebieski	blue	zielony	green	hit	n/a
229.6881	n/a	RESPONSE	n/a	n/a	n/a	n/a	n/a	n/a	n/a	blue
229.7095	0.5167	FEEDBACK	n/a	n/a	n/a	n/a	n/a	n/a	n/a	n/a
230.2261	1.0167	ITI	n/a	n/a	n/a	n/a	n/a	n/a	n/a	n/a
231.2428	0.5167	FIXCROSS	n/a	n/a	n/a	n/a	n/a	n/a	n/a	n/a
231.7595	0.8333	T_COLOR_NAME	6	Neutral	zielony	green	Neutral	Neutral	hit	n/a
232.5651	n/a	RESPONSE	n/a	n/a	n/a	n/a	n/a	n/a	n/a	green
232.5928	0.5167	FEEDBACK	n/a	n/a	n/a	n/a	n/a	n/a	n/a	n/a
233.1095	1.0167	ITI	n/a	n/a	n/a	n/a	n/a	n/a	n/a	n/a
234.1262	0.5167	FIXCROSS	n/a	n/a	n/a	n/a	n/a	n/a	n/a	n/a
234.6428	0.6333	T_COLOR_NAME	7	Incongruent	czerwony	red	niebieski	blue	hit	n/a
235.2502	n/a	RESPONSE	n/a	n/a	n/a	n/a	n/a	n/a	n/a	red
235.2762	0.5167	FEEDBACK	n/a	n/a	n/a	n/a	n/a	n/a	n/a	n/a
235.7929	1.0167	ITI	n/a	n/a	n/a	n/a	n/a	n/a	n/a	n/a
236.8095	0.5167	FIXCROSS	n/a	n/a	n/a	n/a	n/a	n/a	n/a	n/a
237.3262	0.6667	T_COLOR_NAME	8	Neutral	czerwony	red	Neutral	Neutral	hit	n/a
237.9672	n/a	RESPONSE	n/a	n/a	n/a	n/a	n/a	n/a	n/a	red
237.9929	0.5167	FEEDBACK	n/a	n/a	n/a	n/a	n/a	n/a	n/a	n/a
238.5095	1.0167	ITI	n/a	n/a	n/a	n/a	n/a	n/a	n/a	n/a
239.5262	0.5167	FIXCROSS	n/a	n/a	n/a	n/a	n/a	n/a	n/a	n/a
240.0429	0.85	T_COLOR_NAME	9	Incongruent	zielony	green	czerwony	red	hit	n/a
240.8602	n/a	RESPONSE	n/a	n/a	n/a	n/a	n/a	n/a	n/a	green
240.8929	0.5167	FEEDBACK	n/a	n/a	n/a	n/a	n/a	n/a	n/a	n/a
241.4096	1.0167	ITI	n/a	n/a	n/a	n/a	n/a	n/a	n/a	n/a
242.4263	0.5167	FIXCROSS	n/a	n/a	n/a	n/a	n/a	n/a	n/a	n/a
242.9429	0.6667	T_COLOR_NAME	10	Neutral	żółty	yellow	Neutral	Neutral	hit	n/a
243.5771	n/a	RESPONSE	n/a	n/a	n/a	n/a	n/a	n/a	n/a	yellow
243.6096	0.5167	FEEDBACK	n/a	n/a	n/a	n/a	n/a	n/a	n/a	n/a
244.1263	1.0167	ITI	n/a	n/a	n/a	n/a	n/a	n/a	n/a	n/a
245.1429	0.5167	FIXCROSS	n/a	n/a	n/a	n/a	n/a	n/a	n/a	n/a
245.6596	0.7333	T_COLOR_NAME	11	Neutral	czerwony	red	Neutral	Neutral	hit	n/a
246.3581	n/a	RESPONSE	n/a	n/a	n/a	n/a	n/a	n/a	n/a	red
246.393	0.5167	FEEDBACK	n/a	n/a	n/a	n/a	n/a	n/a	n/a	n/a
246.9096	1.0167	ITI	n/a	n/a	n/a	n/a	n/a	n/a	n/a	n/a
247.9263	0.5167	FIXCROSS	n/a	n/a	n/a	n/a	n/a	n/a	n/a	n/a
248.443	0.6833	T_COLOR_NAME	12	Incongruent	czerwony	red	zielony	green	hit	n/a
249.0912	n/a	RESPONSE	n/a	n/a	n/a	n/a	n/a	n/a	n/a	red
249.1263	0.5167	FEEDBACK	n/a	n/a	n/a	n/a	n/a	n/a	n/a	n/a
249.643	1.0333	ITI	n/a	n/a	n/a	n/a	n/a	n/a	n/a	n/a
253.1828	n/a	RESPONSE	n/a	n/a	n/a	n/a	n/a	n/a	n/a	n/a
253.243	1.0167	ITI	n/a	n/a	n/a	n/a	n/a	n/a	n/a	n/a
254.2597	0.5167	FIXCROSS	n/a	n/a	n/a	n/a	n/a	n/a	n/a	n/a
254.7764	0.7333	COLOR_NAME	1	Neutral	niebieski	blue	Neutral	Neutral	hit	n/a
255.4843	n/a	RESPONSE	n/a	n/a	n/a	n/a	n/a	n/a	n/a	blue
255.5097	1.0167	ITI	n/a	n/a	n/a	n/a	n/a	n/a	n/a	n/a
256.5264	0.5167	FIXCROSS	n/a	n/a	n/a	n/a	n/a	n/a	n/a	n/a
257.0431	0.5333	COLOR_NAME	2	Neutral	niebieski	blue	Neutral	Neutral	hit	n/a
257.546	n/a	RESPONSE	n/a	n/a	n/a	n/a	n/a	n/a	n/a	blue
257.5764	1.0167	ITI	n/a	n/a	n/a	n/a	n/a	n/a	n/a	n/a
258.5931	0.5167	FIXCROSS	n/a	n/a	n/a	n/a	n/a	n/a	n/a	n/a
259.1098	0.7833	COLOR_NAME	3	Incongruent	żółty	yellow	czerwony	red	hit	n/a
259.8635	n/a	RESPONSE	n/a	n/a	n/a	n/a	n/a	n/a	n/a	yellow
259.8931	1.0167	ITI	n/a	n/a	n/a	n/a	n/a	n/a	n/a	n/a
260.9098	0.5167	FIXCROSS	n/a	n/a	n/a	n/a	n/a	n/a	n/a	n/a
261.4265	0.7667	COLOR_NAME	4	Neutral	czerwony	red	Neutral	Neutral	hit	n/a
262.1651	n/a	RESPONSE	n/a	n/a	n/a	n/a	n/a	n/a	n/a	red
262.1931	1.0167	ITI	n/a	n/a	n/a	n/a	n/a	n/a	n/a	n/a
263.2098	0.5167	FIXCROSS	n/a	n/a	n/a	n/a	n/a	n/a	n/a	n/a
263.7265	0.6333	COLOR_NAME	5	Neutral	żółty	yellow	Neutral	Neutral	hit	n/a
264.3387	n/a	RESPONSE	n/a	n/a	n/a	n/a	n/a	n/a	n/a	yellow
264.3598	1.0167	ITI	n/a	n/a	n/a	n/a	n/a	n/a	n/a	n/a
265.3765	0.5167	FIXCROSS	n/a	n/a	n/a	n/a	n/a	n/a	n/a	n/a
265.8932	0.6667	COLOR_NAME	6	Neutral	niebieski	blue	Neutral	Neutral	hit	n/a
266.5283	n/a	RESPONSE	n/a	n/a	n/a	n/a	n/a	n/a	n/a	blue
266.5598	1.0167	ITI	n/a	n/a	n/a	n/a	n/a	n/a	n/a	n/a
267.5765	0.5167	FIXCROSS	n/a	n/a	n/a	n/a	n/a	n/a	n/a	n/a
268.0932	0.5	COLOR_NAME	7	Incongruent	niebieski	blue	czerwony	red	hit	n/a
268.5742	n/a	RESPONSE	n/a	n/a	n/a	n/a	n/a	n/a	n/a	blue
268.5932	1.0167	ITI	n/a	n/a	n/a	n/a	n/a	n/a	n/a	n/a
269.6099	0.5167	FIXCROSS	n/a	n/a	n/a	n/a	n/a	n/a	n/a	n/a
270.1265	0.9667	COLOR_NAME	8	Neutral	czerwony	red	Neutral	Neutral	hit	n/a
271.0674	n/a	RESPONSE	n/a	n/a	n/a	n/a	n/a	n/a	n/a	red
271.0932	1.0167	ITI	n/a	n/a	n/a	n/a	n/a	n/a	n/a	n/a
272.1099	0.5167	FIXCROSS	n/a	n/a	n/a	n/a	n/a	n/a	n/a	n/a
272.6266	0.45	COLOR_NAME	9	Neutral	czerwony	red	Neutral	Neutral	hit	n/a
273.0493	n/a	RESPONSE	n/a	n/a	n/a	n/a	n/a	n/a	n/a	red
273.0766	1.0167	ITI	n/a	n/a	n/a	n/a	n/a	n/a	n/a	n/a
274.0933	0.5167	FIXCROSS	n/a	n/a	n/a	n/a	n/a	n/a	n/a	n/a
274.6099	0.4333	COLOR_NAME	10	Incongruent	czerwony	red	żółty	yellow	hit	n/a
275.0153	n/a	RESPONSE	n/a	n/a	n/a	n/a	n/a	n/a	n/a	red
275.0433	1.0167	ITI	n/a	n/a	n/a	n/a	n/a	n/a	n/a	n/a
276.0599	0.5167	FIXCROSS	n/a	n/a	n/a	n/a	n/a	n/a	n/a	n/a
276.5766	0.7167	COLOR_NAME	11	Neutral	zielony	green	Neutral	Neutral	hit	n/a
277.2688	n/a	RESPONSE	n/a	n/a	n/a	n/a	n/a	n/a	n/a	green
277.2933	1.0167	ITI	n/a	n/a	n/a	n/a	n/a	n/a	n/a	n/a
278.31	0.5167	FIXCROSS	n/a	n/a	n/a	n/a	n/a	n/a	n/a	n/a
278.8266	0.6333	COLOR_NAME	12	Incongruent	niebieski	blue	żółty	yellow	hit	n/a
279.4424	n/a	RESPONSE	n/a	n/a	n/a	n/a	n/a	n/a	n/a	blue
279.46	1.0167	ITI	n/a	n/a	n/a	n/a	n/a	n/a	n/a	n/a
280.4767	0.5167	FIXCROSS	n/a	n/a	n/a	n/a	n/a	n/a	n/a	n/a
280.9933	0.7333	COLOR_NAME	13	Incongruent	zielony	green	niebieski	blue	hit	n/a
281.6959	n/a	RESPONSE	n/a	n/a	n/a	n/a	n/a	n/a	n/a	green
281.7267	1.0167	ITI	n/a	n/a	n/a	n/a	n/a	n/a	n/a	n/a
282.7433	0.5167	FIXCROSS	n/a	n/a	n/a	n/a	n/a	n/a	n/a	n/a
283.26	0.7667	COLOR_NAME	14	Incongruent	niebieski	blue	czerwony	red	hit	n/a
283.9976	n/a	RESPONSE	n/a	n/a	n/a	n/a	n/a	n/a	n/a	blue
284.0267	1.0167	ITI	n/a	n/a	n/a	n/a	n/a	n/a	n/a	n/a
285.0434	0.5167	FIXCROSS	n/a	n/a	n/a	n/a	n/a	n/a	n/a	n/a
285.56	0.6667	COLOR_NAME	15	Incongruent	żółty	yellow	niebieski	blue	hit	n/a
286.2032	n/a	RESPONSE	n/a	n/a	n/a	n/a	n/a	n/a	n/a	yellow
286.2267	1.0167	ITI	n/a	n/a	n/a	n/a	n/a	n/a	n/a	n/a
287.2434	0.5167	FIXCROSS	n/a	n/a	n/a	n/a	n/a	n/a	n/a	n/a
287.7601	0.6167	COLOR_NAME	16	Neutral	niebieski	blue	Neutral	Neutral	hit	n/a
288.3448	n/a	RESPONSE	n/a	n/a	n/a	n/a	n/a	n/a	n/a	blue
288.3767	1.0167	ITI	n/a	n/a	n/a	n/a	n/a	n/a	n/a	n/a
289.3934	0.5167	FIXCROSS	n/a	n/a	n/a	n/a	n/a	n/a	n/a	n/a
289.9101	0.7167	COLOR_NAME	17	Neutral	zielony	green	Neutral	Neutral	hit	n/a
290.5984	n/a	RESPONSE	n/a	n/a	n/a	n/a	n/a	n/a	n/a	green
290.6268	1.0167	ITI	n/a	n/a	n/a	n/a	n/a	n/a	n/a	n/a
291.6434	0.5167	FIXCROSS	n/a	n/a	n/a	n/a	n/a	n/a	n/a	n/a
292.1601	0.7167	COLOR_NAME	18	Incongruent	niebieski	blue	zielony	green	hit	n/a
292.852	n/a	RESPONSE	n/a	n/a	n/a	n/a	n/a	n/a	n/a	blue
292.8768	1.0167	ITI	n/a	n/a	n/a	n/a	n/a	n/a	n/a	n/a
293.8935	0.5167	FIXCROSS	n/a	n/a	n/a	n/a	n/a	n/a	n/a	n/a
294.4101	0.8834	COLOR_NAME	19	Incongruent	zielony	green	czerwony	red	hit	n/a
295.2654	n/a	RESPONSE	n/a	n/a	n/a	n/a	n/a	n/a	n/a	green
295.2935	1.0167	ITI	n/a	n/a	n/a	n/a	n/a	n/a	n/a	n/a
296.3101	0.5167	FIXCROSS	n/a	n/a	n/a	n/a	n/a	n/a	n/a	n/a
296.8268	0.65	COLOR_NAME	20	Incongruent	żółty	yellow	czerwony	red	hit	n/a
297.455	n/a	RESPONSE	n/a	n/a	n/a	n/a	n/a	n/a	n/a	yellow
297.4768	1.0167	ITI	n/a	n/a	n/a	n/a	n/a	n/a	n/a	n/a
298.4935	0.5167	FIXCROSS	n/a	n/a	n/a	n/a	n/a	n/a	n/a	n/a
299.0102	0.6833	COLOR_NAME	21	Incongruent	żółty	yellow	niebieski	blue	hit	n/a
299.6605	n/a	RESPONSE	n/a	n/a	n/a	n/a	n/a	n/a	n/a	yellow
299.6935	1.0167	ITI	n/a	n/a	n/a	n/a	n/a	n/a	n/a	n/a
300.7102	0.5167	FIXCROSS	n/a	n/a	n/a	n/a	n/a	n/a	n/a	n/a
301.2269	0.7	COLOR_NAME	22	Incongruent	niebieski	blue	czerwony	red	hit	n/a
301.8982	n/a	RESPONSE	n/a	n/a	n/a	n/a	n/a	n/a	n/a	blue
301.9269	1.0167	ITI	n/a	n/a	n/a	n/a	n/a	n/a	n/a	n/a
302.9436	0.5167	FIXCROSS	n/a	n/a	n/a	n/a	n/a	n/a	n/a	n/a
303.4602	0.5333	COLOR_NAME	23	Neutral	żółty	yellow	Neutral	Neutral	hit	n/a
303.96	n/a	RESPONSE	n/a	n/a	n/a	n/a	n/a	n/a	n/a	yellow
303.9936	1.0167	ITI	n/a	n/a	n/a	n/a	n/a	n/a	n/a	n/a
305.0102	0.5167	FIXCROSS	n/a	n/a	n/a	n/a	n/a	n/a	n/a	n/a
305.5269	0.8667	COLOR_NAME	24	Incongruent	czerwony	red	niebieski	blue	hit	n/a
306.3734	n/a	RESPONSE	n/a	n/a	n/a	n/a	n/a	n/a	n/a	red
306.3936	1.0167	ITI	n/a	n/a	n/a	n/a	n/a	n/a	n/a	n/a
307.4103	0.5167	FIXCROSS	n/a	n/a	n/a	n/a	n/a	n/a	n/a	n/a
307.9269	0.7	COLOR_NAME	25	Incongruent	zielony	green	niebieski	blue	hit	n/a
308.595	n/a	RESPONSE	n/a	n/a	n/a	n/a	n/a	n/a	n/a	green
308.6269	1.0167	ITI	n/a	n/a	n/a	n/a	n/a	n/a	n/a	n/a
309.6436	0.5167	FIXCROSS	n/a	n/a	n/a	n/a	n/a	n/a	n/a	n/a
310.1603	0.6333	COLOR_NAME	26	Incongruent	zielony	green	niebieski	blue	hit	n/a
310.7686	n/a	RESPONSE	n/a	n/a	n/a	n/a	n/a	n/a	n/a	green
310.7936	1.0167	ITI	n/a	n/a	n/a	n/a	n/a	n/a	n/a	n/a
311.8103	0.5167	FIXCROSS	n/a	n/a	n/a	n/a	n/a	n/a	n/a	n/a
312.327	0.65	COLOR_NAME	27	Neutral	niebieski	blue	Neutral	Neutral	hit	n/a
312.9584	n/a	RESPONSE	n/a	n/a	n/a	n/a	n/a	n/a	n/a	blue
312.977	1.0167	ITI	n/a	n/a	n/a	n/a	n/a	n/a	n/a	n/a
313.9937	0.5167	FIXCROSS	n/a	n/a	n/a	n/a	n/a	n/a	n/a	n/a
314.5103	0.6167	COLOR_NAME	28	Neutral	żółty	yellow	Neutral	Neutral	hit	n/a
315.1	n/a	RESPONSE	n/a	n/a	n/a	n/a	n/a	n/a	n/a	yellow
315.127	1.0167	ITI	n/a	n/a	n/a	n/a	n/a	n/a	n/a	n/a
316.1437	0.5167	FIXCROSS	n/a	n/a	n/a	n/a	n/a	n/a	n/a	n/a
316.6604	0.55	COLOR_NAME	29	Neutral	niebieski	blue	Neutral	Neutral	hit	n/a
317.1777	n/a	RESPONSE	n/a	n/a	n/a	n/a	n/a	n/a	n/a	blue
317.2104	1.0167	ITI	n/a	n/a	n/a	n/a	n/a	n/a	n/a	n/a
318.227	0.5167	FIXCROSS	n/a	n/a	n/a	n/a	n/a	n/a	n/a	n/a
318.7437	0.5667	COLOR_NAME	30	Neutral	zielony	green	Neutral	Neutral	hit	n/a
319.2874	n/a	RESPONSE	n/a	n/a	n/a	n/a	n/a	n/a	n/a	green
319.3104	1.0167	ITI	n/a	n/a	n/a	n/a	n/a	n/a	n/a	n/a
320.3271	0.5167	FIXCROSS	n/a	n/a	n/a	n/a	n/a	n/a	n/a	n/a
320.8437	0.6667	COLOR_NAME	31	Neutral	zielony	green	Neutral	Neutral	hit	n/a
321.4772	n/a	RESPONSE	n/a	n/a	n/a	n/a	n/a	n/a	n/a	green
321.5104	1.0167	ITI	n/a	n/a	n/a	n/a	n/a	n/a	n/a	n/a
322.5271	0.5167	FIXCROSS	n/a	n/a	n/a	n/a	n/a	n/a	n/a	n/a
323.0438	0.4167	COLOR_NAME	32	Neutral	zielony	green	Neutral	Neutral	hit	n/a
323.443	n/a	RESPONSE	n/a	n/a	n/a	n/a	n/a	n/a	n/a	green
323.4604	1.0167	ITI	n/a	n/a	n/a	n/a	n/a	n/a	n/a	n/a
324.4771	0.5167	FIXCROSS	n/a	n/a	n/a	n/a	n/a	n/a	n/a	n/a
324.9938	0.6334	COLOR_NAME	33	Incongruent	żółty	yellow	czerwony	red	hit	n/a
325.6006	n/a	RESPONSE	n/a	n/a	n/a	n/a	n/a	n/a	n/a	yellow
325.6271	1.0167	ITI	n/a	n/a	n/a	n/a	n/a	n/a	n/a	n/a
326.6438	0.5167	FIXCROSS	n/a	n/a	n/a	n/a	n/a	n/a	n/a	n/a
327.1605	0.5833	COLOR_NAME	34	Neutral	zielony	green	Neutral	Neutral	hit	n/a
327.7104	n/a	RESPONSE	n/a	n/a	n/a	n/a	n/a	n/a	n/a	green
327.7438	1.0167	ITI	n/a	n/a	n/a	n/a	n/a	n/a	n/a	n/a
328.7605	0.5167	FIXCROSS	n/a	n/a	n/a	n/a	n/a	n/a	n/a	n/a
329.2772	0.6667	COLOR_NAME	35	Neutral	żółty	yellow	Neutral	Neutral	hit	n/a
329.916	n/a	RESPONSE	n/a	n/a	n/a	n/a	n/a	n/a	n/a	yellow
329.9438	1.0167	ITI	n/a	n/a	n/a	n/a	n/a	n/a	n/a	n/a
330.9605	0.5167	FIXCROSS	n/a	n/a	n/a	n/a	n/a	n/a	n/a	n/a
331.4772	0.85	COLOR_NAME	36	Neutral	czerwony	red	Neutral	Neutral	hit	n/a
332.2975	n/a	RESPONSE	n/a	n/a	n/a	n/a	n/a	n/a	n/a	red
332.3272	1.0167	ITI	n/a	n/a	n/a	n/a	n/a	n/a	n/a	n/a
333.3439	0.5167	FIXCROSS	n/a	n/a	n/a	n/a	n/a	n/a	n/a	n/a
333.8605	0.45	COLOR_NAME	37	Incongruent	czerwony	red	zielony	green	hit	n/a
334.2793	n/a	RESPONSE	n/a	n/a	n/a	n/a	n/a	n/a	n/a	red
334.3105	1.0167	ITI	n/a	n/a	n/a	n/a	n/a	n/a	n/a	n/a
335.3272	0.5167	FIXCROSS	n/a	n/a	n/a	n/a	n/a	n/a	n/a	n/a
335.8439	0.7667	COLOR_NAME	38	Incongruent	niebieski	blue	zielony	green	hit	n/a
336.5808	n/a	RESPONSE	n/a	n/a	n/a	n/a	n/a	n/a	n/a	blue
336.6106	1.0167	ITI	n/a	n/a	n/a	n/a	n/a	n/a	n/a	n/a
337.6272	0.5167	FIXCROSS	n/a	n/a	n/a	n/a	n/a	n/a	n/a	n/a
338.1439	0.8167	COLOR_NAME	39	Incongruent	czerwony	red	niebieski	blue	hit	n/a
338.9303	n/a	RESPONSE	n/a	n/a	n/a	n/a	n/a	n/a	n/a	red
338.9606	1.0167	ITI	n/a	n/a	n/a	n/a	n/a	n/a	n/a	n/a
339.9773	0.5167	FIXCROSS	n/a	n/a	n/a	n/a	n/a	n/a	n/a	n/a
340.4939	0.65	COLOR_NAME	40	Incongruent	żółty	yellow	niebieski	blue	hit	n/a
341.1199	n/a	RESPONSE	n/a	n/a	n/a	n/a	n/a	n/a	n/a	yellow
341.1439	1.0167	ITI	n/a	n/a	n/a	n/a	n/a	n/a	n/a	n/a
342.1606	0.5167	FIXCROSS	n/a	n/a	n/a	n/a	n/a	n/a	n/a	n/a
342.6773	0.6833	COLOR_NAME	41	Neutral	zielony	green	Neutral	Neutral	hit	n/a
343.3255	n/a	RESPONSE	n/a	n/a	n/a	n/a	n/a	n/a	n/a	green
343.3606	1.0167	ITI	n/a	n/a	n/a	n/a	n/a	n/a	n/a	n/a
344.3773	0.5167	FIXCROSS	n/a	n/a	n/a	n/a	n/a	n/a	n/a	n/a
344.894	0.6667	COLOR_NAME	42	Incongruent	zielony	green	czerwony	red	hit	n/a
345.5312	n/a	RESPONSE	n/a	n/a	n/a	n/a	n/a	n/a	n/a	green
345.5607	1.0167	ITI	n/a	n/a	n/a	n/a	n/a	n/a	n/a	n/a
346.5773	0.5167	FIXCROSS	n/a	n/a	n/a	n/a	n/a	n/a	n/a	n/a
347.094	0.6167	COLOR_NAME	43	Incongruent	żółty	yellow	zielony	green	hit	n/a
347.6888	n/a	RESPONSE	n/a	n/a	n/a	n/a	n/a	n/a	n/a	yellow
347.7107	1.0167	ITI	n/a	n/a	n/a	n/a	n/a	n/a	n/a	n/a
348.7274	0.5167	FIXCROSS	n/a	n/a	n/a	n/a	n/a	n/a	n/a	n/a
349.244	0.6833	COLOR_NAME	44	Neutral	czerwony	red	Neutral	Neutral	hit	n/a
349.8945	n/a	RESPONSE	n/a	n/a	n/a	n/a	n/a	n/a	n/a	red
349.9274	1.0167	ITI	n/a	n/a	n/a	n/a	n/a	n/a	n/a	n/a
350.9441	0.5167	FIXCROSS	n/a	n/a	n/a	n/a	n/a	n/a	n/a	n/a
351.4607	0.7	COLOR_NAME	45	Neutral	niebieski	blue	Neutral	Neutral	hit	n/a
352.132	n/a	RESPONSE	n/a	n/a	n/a	n/a	n/a	n/a	n/a	blue
352.1607	1.0167	ITI	n/a	n/a	n/a	n/a	n/a	n/a	n/a	n/a
353.1774	0.5167	FIXCROSS	n/a	n/a	n/a	n/a	n/a	n/a	n/a	n/a
353.6941	0.6	COLOR_NAME	46	Neutral	czerwony	red	Neutral	Neutral	hit	n/a
354.2738	n/a	RESPONSE	n/a	n/a	n/a	n/a	n/a	n/a	n/a	red
354.2941	1.0167	ITI	n/a	n/a	n/a	n/a	n/a	n/a	n/a	n/a
355.3108	0.5167	FIXCROSS	n/a	n/a	n/a	n/a	n/a	n/a	n/a	n/a
355.8274	0.8167	COLOR_NAME	47	Incongruent	zielony	green	żółty	yellow	incorrect	n/a
356.6231	n/a	RESPONSE	n/a	n/a	n/a	n/a	n/a	n/a	n/a	yellow
356.6441	1.0167	ITI	n/a	n/a	n/a	n/a	n/a	n/a	n/a	n/a
357.6608	0.5167	FIXCROSS	n/a	n/a	n/a	n/a	n/a	n/a	n/a	n/a
358.1775	0.7167	COLOR_NAME	48	Neutral	niebieski	blue	Neutral	Neutral	hit	n/a
358.8768	n/a	RESPONSE	n/a	n/a	n/a	n/a	n/a	n/a	n/a	blue
358.8941	1.0167	ITI	n/a	n/a	n/a	n/a	n/a	n/a	n/a	n/a
359.9108	0.5167	FIXCROSS	n/a	n/a	n/a	n/a	n/a	n/a	n/a	n/a
360.4275	1.0667	COLOR_NAME	49	Incongruent	zielony	green	żółty	yellow	hit	n/a
361.466	n/a	RESPONSE	n/a	n/a	n/a	n/a	n/a	n/a	n/a	green
361.4942	1.0167	ITI	n/a	n/a	n/a	n/a	n/a	n/a	n/a	n/a
362.5108	0.5167	FIXCROSS	n/a	n/a	n/a	n/a	n/a	n/a	n/a	n/a
363.0275	0.85	COLOR_NAME	50	Incongruent	żółty	yellow	zielony	green	hit	n/a
363.8474	n/a	RESPONSE	n/a	n/a	n/a	n/a	n/a	n/a	n/a	yellow
363.8775	1.0167	ITI	n/a	n/a	n/a	n/a	n/a	n/a	n/a	n/a
364.8942	0.5167	FIXCROSS	n/a	n/a	n/a	n/a	n/a	n/a	n/a	n/a
365.4109	0.7	COLOR_NAME	51	Neutral	czerwony	red	Neutral	Neutral	hit	n/a
366.0849	n/a	RESPONSE	n/a	n/a	n/a	n/a	n/a	n/a	n/a	red
366.1109	1.0167	ITI	n/a	n/a	n/a	n/a	n/a	n/a	n/a	n/a
367.1275	0.5167	FIXCROSS	n/a	n/a	n/a	n/a	n/a	n/a	n/a	n/a
367.6442	0.9	COLOR_NAME	52	Neutral	zielony	green	Neutral	Neutral	hit	n/a
368.5143	n/a	RESPONSE	n/a	n/a	n/a	n/a	n/a	n/a	n/a	green
368.5442	1.0167	ITI	n/a	n/a	n/a	n/a	n/a	n/a	n/a	n/a
369.5609	0.5167	FIXCROSS	n/a	n/a	n/a	n/a	n/a	n/a	n/a	n/a
370.0776	0.5667	COLOR_NAME	53	Incongruent	zielony	green	żółty	yellow	hit	n/a
370.624	n/a	RESPONSE	n/a	n/a	n/a	n/a	n/a	n/a	n/a	green
370.6443	1.0167	ITI	n/a	n/a	n/a	n/a	n/a	n/a	n/a	n/a
371.6609	0.5167	FIXCROSS	n/a	n/a	n/a	n/a	n/a	n/a	n/a	n/a
372.1776	0.9333	COLOR_NAME	54	Incongruent	czerwony	red	niebieski	blue	hit	n/a
373.0854	n/a	RESPONSE	n/a	n/a	n/a	n/a	n/a	n/a	n/a	red
373.1109	1.0167	ITI	n/a	n/a	n/a	n/a	n/a	n/a	n/a	n/a
374.1276	0.5167	FIXCROSS	n/a	n/a	n/a	n/a	n/a	n/a	n/a	n/a
374.6443	0.7667	COLOR_NAME	55	Neutral	żółty	yellow	Neutral	Neutral	hit	n/a
375.3869	n/a	RESPONSE	n/a	n/a	n/a	n/a	n/a	n/a	n/a	yellow
375.411	1.0167	ITI	n/a	n/a	n/a	n/a	n/a	n/a	n/a	n/a
376.4276	0.5167	FIXCROSS	n/a	n/a	n/a	n/a	n/a	n/a	n/a	n/a
376.9443	1.1167	COLOR_NAME	56	Incongruent	niebieski	blue	żółty	yellow	hit	n/a
378.0401	n/a	RESPONSE	n/a	n/a	n/a	n/a	n/a	n/a	n/a	blue
378.061	1.0167	ITI	n/a	n/a	n/a	n/a	n/a	n/a	n/a	n/a
379.0777	0.5167	FIXCROSS	n/a	n/a	n/a	n/a	n/a	n/a	n/a	n/a
379.5943	0.7333	COLOR_NAME	57	Incongruent	czerwony	red	żółty	yellow	hit	n/a
380.3096	n/a	RESPONSE	n/a	n/a	n/a	n/a	n/a	n/a	n/a	red
380.3277	1.0167	ITI	n/a	n/a	n/a	n/a	n/a	n/a	n/a	n/a
381.3444	0.5167	FIXCROSS	n/a	n/a	n/a	n/a	n/a	n/a	n/a	n/a
381.861	0.5	COLOR_NAME	58	Neutral	czerwony	red	Neutral	Neutral	hit	n/a
382.3394	n/a	RESPONSE	n/a	n/a	n/a	n/a	n/a	n/a	n/a	red
382.361	1.0167	ITI	n/a	n/a	n/a	n/a	n/a	n/a	n/a	n/a
383.3777	0.5167	FIXCROSS	n/a	n/a	n/a	n/a	n/a	n/a	n/a	n/a
383.8944	0.55	COLOR_NAME	59	Incongruent	czerwony	red	żółty	yellow	hit	n/a
384.4172	n/a	RESPONSE	n/a	n/a	n/a	n/a	n/a	n/a	n/a	red
384.4444	1.0167	ITI	n/a	n/a	n/a	n/a	n/a	n/a	n/a	n/a
385.4611	0.5167	FIXCROSS	n/a	n/a	n/a	n/a	n/a	n/a	n/a	n/a
385.9778	0.6167	COLOR_NAME	60	Incongruent	czerwony	red	zielony	green	hit	n/a
386.5748	n/a	RESPONSE	n/a	n/a	n/a	n/a	n/a	n/a	n/a	red
386.5944	1.0167	ITI	n/a	n/a	n/a	n/a	n/a	n/a	n/a	n/a
387.6111	0.5167	FIXCROSS	n/a	n/a	n/a	n/a	n/a	n/a	n/a	n/a
388.1278	1.0	COLOR_NAME	61	Neutral	żółty	yellow	Neutral	Neutral	hit	n/a
389.1001	n/a	RESPONSE	n/a	n/a	n/a	n/a	n/a	n/a	n/a	yellow
389.1278	1.0167	ITI	n/a	n/a	n/a	n/a	n/a	n/a	n/a	n/a
390.1445	0.5167	FIXCROSS	n/a	n/a	n/a	n/a	n/a	n/a	n/a	n/a
390.6611	0.7167	COLOR_NAME	62	Neutral	czerwony	red	Neutral	Neutral	hit	n/a
391.3538	n/a	RESPONSE	n/a	n/a	n/a	n/a	n/a	n/a	n/a	red
391.3778	1.0166	ITI	n/a	n/a	n/a	n/a	n/a	n/a	n/a	n/a
392.3944	0.5167	FIXCROSS	n/a	n/a	n/a	n/a	n/a	n/a	n/a	n/a
392.9112	0.85	COLOR_NAME	63	Neutral	niebieski	blue	Neutral	Neutral	hit	n/a
393.7351	n/a	RESPONSE	n/a	n/a	n/a	n/a	n/a	n/a	n/a	blue
393.7612	1.0167	ITI	n/a	n/a	n/a	n/a	n/a	n/a	n/a	n/a
394.7778	0.5167	FIXCROSS	n/a	n/a	n/a	n/a	n/a	n/a	n/a	n/a
395.2945	0.6667	COLOR_NAME	64	Incongruent	niebieski	blue	żółty	yellow	hit	n/a
395.9407	n/a	RESPONSE	n/a	n/a	n/a	n/a	n/a	n/a	n/a	blue
395.9612	1.0167	ITI	n/a	n/a	n/a	n/a	n/a	n/a	n/a	n/a
396.9779	0.5167	FIXCROSS	n/a	n/a	n/a	n/a	n/a	n/a	n/a	n/a
397.4945	1.0167	COLOR_NAME	65	Incongruent	żółty	yellow	zielony	green	hit	n/a
398.482	n/a	RESPONSE	n/a	n/a	n/a	n/a	n/a	n/a	n/a	yellow
398.5112	1.0167	ITI	n/a	n/a	n/a	n/a	n/a	n/a	n/a	n/a
399.5279	0.5167	FIXCROSS	n/a	n/a	n/a	n/a	n/a	n/a	n/a	n/a
400.0446	0.8	COLOR_NAME	66	Incongruent	czerwony	red	zielony	green	hit	n/a
400.8154	n/a	RESPONSE	n/a	n/a	n/a	n/a	n/a	n/a	n/a	red
400.8446	1.0167	ITI	n/a	n/a	n/a	n/a	n/a	n/a	n/a	n/a
401.8612	0.5167	FIXCROSS	n/a	n/a	n/a	n/a	n/a	n/a	n/a	n/a
402.3779	0.65	COLOR_NAME	67	Incongruent	niebieski	blue	zielony	green	hit	n/a
403.005	n/a	RESPONSE	n/a	n/a	n/a	n/a	n/a	n/a	n/a	blue
403.0279	1.0167	ITI	n/a	n/a	n/a	n/a	n/a	n/a	n/a	n/a
404.0446	0.5167	FIXCROSS	n/a	n/a	n/a	n/a	n/a	n/a	n/a	n/a
404.5613	0.9167	COLOR_NAME	68	Neutral	żółty	yellow	Neutral	Neutral	hit	n/a
405.4504	n/a	RESPONSE	n/a	n/a	n/a	n/a	n/a	n/a	n/a	yellow
405.4779	1.0167	ITI	n/a	n/a	n/a	n/a	n/a	n/a	n/a	n/a
406.4946	0.5167	FIXCROSS	n/a	n/a	n/a	n/a	n/a	n/a	n/a	n/a
407.0113	0.9833	COLOR_NAME	69	Incongruent	zielony	green	czerwony	red	hit	n/a
407.9758	n/a	RESPONSE	n/a	n/a	n/a	n/a	n/a	n/a	n/a	green
407.9946	1.0167	ITI	n/a	n/a	n/a	n/a	n/a	n/a	n/a	n/a
409.0113	0.5167	FIXCROSS	n/a	n/a	n/a	n/a	n/a	n/a	n/a	n/a
409.528	0.85	COLOR_NAME	70	Neutral	żółty	yellow	Neutral	Neutral	hit	n/a
410.3571	n/a	RESPONSE	n/a	n/a	n/a	n/a	n/a	n/a	n/a	yellow
410.378	1.0167	ITI	n/a	n/a	n/a	n/a	n/a	n/a	n/a	n/a
411.3947	0.5167	FIXCROSS	n/a	n/a	n/a	n/a	n/a	n/a	n/a	n/a
411.9113	0.9167	COLOR_NAME	71	Neutral	zielony	green	Neutral	Neutral	hit	n/a
412.8026	n/a	RESPONSE	n/a	n/a	n/a	n/a	n/a	n/a	n/a	green
412.828	1.0167	ITI	n/a	n/a	n/a	n/a	n/a	n/a	n/a	n/a
413.8447	0.5167	FIXCROSS	n/a	n/a	n/a	n/a	n/a	n/a	n/a	n/a
414.3614	1.2667	COLOR_NAME	72	Neutral	żółty	yellow	Neutral	Neutral	hit	n/a
415.5996	n/a	RESPONSE	n/a	n/a	n/a	n/a	n/a	n/a	n/a	yellow
415.6281	1.0333	ITI	n/a	n/a	n/a	n/a	n/a	n/a	n/a	n/a
426.4038	n/a	RESPONSE	n/a	n/a	n/a	n/a	n/a	n/a	n/a	n/a
