onset	duration	trial_type	trial_number	stroop_condition	stim_text(PL)	stim_text(eng)	stim_color(PL)	stim_color(eng)	response_type	response_color
0.0	n/a	RESPONSE	n/a	n/a	n/a	n/a	n/a	n/a	n/a	n/a
0.0675	1.0167	ITI	n/a	n/a	n/a	n/a	n/a	n/a	n/a	n/a
1.0842	0.5167	FIXCROSS	n/a	n/a	n/a	n/a	n/a	n/a	n/a	n/a
1.6008	1.6334	T_INK	1	Neutral	xxxxxxxxx	xxxxxxxxx	żółty	yellow	hit	n/a
3.2098	n/a	RESPONSE	n/a	n/a	n/a	n/a	n/a	n/a	n/a	yellow
3.2342	0.5167	FEEDBACK	n/a	n/a	n/a	n/a	n/a	n/a	n/a	n/a
3.7509	1.0167	ITI	n/a	n/a	n/a	n/a	n/a	n/a	n/a	n/a
4.7675	0.5167	FIXCROSS	n/a	n/a	n/a	n/a	n/a	n/a	n/a	n/a
5.2842	1.7667	T_INK	2	Incongruent	czerwony	red	niebieski	blue	hit	n/a
7.0267	n/a	RESPONSE	n/a	n/a	n/a	n/a	n/a	n/a	n/a	blue
7.0509	0.5167	FEEDBACK	n/a	n/a	n/a	n/a	n/a	n/a	n/a	n/a
7.5676	1.0167	ITI	n/a	n/a	n/a	n/a	n/a	n/a	n/a	n/a
8.5843	0.5167	FIXCROSS	n/a	n/a	n/a	n/a	n/a	n/a	n/a	n/a
9.1009	0.95	T_INK	3	Neutral	xxxxxxxx	xxxxxxxx	zielony	green	hit	n/a
10.0129	n/a	RESPONSE	n/a	n/a	n/a	n/a	n/a	n/a	n/a	green
10.0509	0.5167	FEEDBACK	n/a	n/a	n/a	n/a	n/a	n/a	n/a	n/a
10.5676	1.0167	ITI	n/a	n/a	n/a	n/a	n/a	n/a	n/a	n/a
11.5843	0.5167	FIXCROSS	n/a	n/a	n/a	n/a	n/a	n/a	n/a	n/a
12.101	0.65	T_INK	4	Neutral	xxxxx	xxxxx	czerwony	red	hit	n/a
12.7278	n/a	RESPONSE	n/a	n/a	n/a	n/a	n/a	n/a	n/a	red
12.751	0.5167	FEEDBACK	n/a	n/a	n/a	n/a	n/a	n/a	n/a	n/a
13.2677	1.0167	ITI	n/a	n/a	n/a	n/a	n/a	n/a	n/a	n/a
14.2843	0.5167	FIXCROSS	n/a	n/a	n/a	n/a	n/a	n/a	n/a	n/a
14.801	0.9667	T_INK	5	Incongruent	zielony	green	niebieski	blue	hit	n/a
15.7461	n/a	RESPONSE	n/a	n/a	n/a	n/a	n/a	n/a	n/a	blue
15.7677	0.5167	FEEDBACK	n/a	n/a	n/a	n/a	n/a	n/a	n/a	n/a
16.2844	1.0167	ITI	n/a	n/a	n/a	n/a	n/a	n/a	n/a	n/a
17.301	0.5167	FIXCROSS	n/a	n/a	n/a	n/a	n/a	n/a	n/a	n/a
17.8177	1.1667	T_INK	6	Incongruent	żółty	yellow	czerwony	red	hit	n/a
18.956	n/a	RESPONSE	n/a	n/a	n/a	n/a	n/a	n/a	n/a	red
18.9844	0.5167	FEEDBACK	n/a	n/a	n/a	n/a	n/a	n/a	n/a	n/a
19.5011	1.0167	ITI	n/a	n/a	n/a	n/a	n/a	n/a	n/a	n/a
20.5177	0.5167	FIXCROSS	n/a	n/a	n/a	n/a	n/a	n/a	n/a	n/a
21.0344	1.2	T_INK	7	Neutral	xxxxxxx	xxxxxxx	żółty	yellow	hit	n/a
22.2138	n/a	RESPONSE	n/a	n/a	n/a	n/a	n/a	n/a	n/a	yellow
22.2344	0.5167	FEEDBACK	n/a	n/a	n/a	n/a	n/a	n/a	n/a	n/a
22.7511	1.0167	ITI	n/a	n/a	n/a	n/a	n/a	n/a	n/a	n/a
23.7678	0.5167	FIXCROSS	n/a	n/a	n/a	n/a	n/a	n/a	n/a	n/a
24.2845	0.7833	T_INK	8	Neutral	xxxxx	xxxxx	zielony	green	hit	n/a
25.0404	n/a	RESPONSE	n/a	n/a	n/a	n/a	n/a	n/a	n/a	green
25.0678	0.5167	FEEDBACK	n/a	n/a	n/a	n/a	n/a	n/a	n/a	n/a
25.5845	1.0167	ITI	n/a	n/a	n/a	n/a	n/a	n/a	n/a	n/a
26.6012	0.5167	FIXCROSS	n/a	n/a	n/a	n/a	n/a	n/a	n/a	n/a
27.1178	1.75	T_INK	9	Incongruent	zielony	green	żółty	yellow	hit	n/a
28.8411	n/a	RESPONSE	n/a	n/a	n/a	n/a	n/a	n/a	n/a	yellow
28.8678	0.5167	FEEDBACK	n/a	n/a	n/a	n/a	n/a	n/a	n/a	n/a
29.3845	1.0167	ITI	n/a	n/a	n/a	n/a	n/a	n/a	n/a	n/a
30.4012	0.5167	FIXCROSS	n/a	n/a	n/a	n/a	n/a	n/a	n/a	n/a
30.9179	1.3667	T_INK	10	Incongruent	niebieski	blue	żółty	yellow	hit	n/a
32.2586	n/a	RESPONSE	n/a	n/a	n/a	n/a	n/a	n/a	n/a	yellow
32.2846	0.5167	FEEDBACK	n/a	n/a	n/a	n/a	n/a	n/a	n/a	n/a
32.8012	1.0167	ITI	n/a	n/a	n/a	n/a	n/a	n/a	n/a	n/a
33.8179	0.5167	FIXCROSS	n/a	n/a	n/a	n/a	n/a	n/a	n/a	n/a
34.3346	0.6833	T_INK	11	Neutral	xxxxxxxx	xxxxxxxx	żółty	yellow	hit	n/a
34.9895	n/a	RESPONSE	n/a	n/a	n/a	n/a	n/a	n/a	n/a	yellow
35.0179	0.5167	FEEDBACK	n/a	n/a	n/a	n/a	n/a	n/a	n/a	n/a
35.5346	1.0167	ITI	n/a	n/a	n/a	n/a	n/a	n/a	n/a	n/a
36.5513	0.5167	FIXCROSS	n/a	n/a	n/a	n/a	n/a	n/a	n/a	n/a
37.0679	0.6667	T_INK	12	Neutral	xxxxx	xxxxx	niebieski	blue	hit	n/a
37.7043	n/a	RESPONSE	n/a	n/a	n/a	n/a	n/a	n/a	n/a	blue
37.7346	0.5167	FEEDBACK	n/a	n/a	n/a	n/a	n/a	n/a	n/a	n/a
38.2513	1.0334	ITI	n/a	n/a	n/a	n/a	n/a	n/a	n/a	n/a
41.0579	n/a	RESPONSE	n/a	n/a	n/a	n/a	n/a	n/a	n/a	n/a
41.118	1.0167	ITI	n/a	n/a	n/a	n/a	n/a	n/a	n/a	n/a
42.1347	0.5167	FIXCROSS	n/a	n/a	n/a	n/a	n/a	n/a	n/a	n/a
42.6513	1.55	INK	1	Incongruent	niebieski	blue	żółty	yellow	hit	n/a
44.1719	n/a	RESPONSE	n/a	n/a	n/a	n/a	n/a	n/a	n/a	yellow
44.2014	1.0167	ITI	n/a	n/a	n/a	n/a	n/a	n/a	n/a	n/a
45.218	0.5167	FIXCROSS	n/a	n/a	n/a	n/a	n/a	n/a	n/a	n/a
45.7347	1.0667	INK	2	Incongruent	niebieski	blue	zielony	green	hit	n/a
46.7749	n/a	RESPONSE	n/a	n/a	n/a	n/a	n/a	n/a	n/a	green
46.8014	1.0167	ITI	n/a	n/a	n/a	n/a	n/a	n/a	n/a	n/a
47.8181	0.5167	FIXCROSS	n/a	n/a	n/a	n/a	n/a	n/a	n/a	n/a
48.3348	0.5	INK	3	Incongruent	niebieski	blue	czerwony	red	hit	n/a
48.8031	n/a	RESPONSE	n/a	n/a	n/a	n/a	n/a	n/a	n/a	red
48.8348	1.0167	ITI	n/a	n/a	n/a	n/a	n/a	n/a	n/a	n/a
49.8514	0.5167	FIXCROSS	n/a	n/a	n/a	n/a	n/a	n/a	n/a	n/a
50.3681	0.7834	INK	4	Neutral	xxxxxxx	xxxxxxx	niebieski	blue	hit	n/a
51.1187	n/a	RESPONSE	n/a	n/a	n/a	n/a	n/a	n/a	n/a	blue
51.1515	1.0167	ITI	n/a	n/a	n/a	n/a	n/a	n/a	n/a	n/a
52.1681	0.5167	FIXCROSS	n/a	n/a	n/a	n/a	n/a	n/a	n/a	n/a
52.6848	0.7667	INK	5	Incongruent	niebieski	blue	czerwony	red	hit	n/a
53.4183	n/a	RESPONSE	n/a	n/a	n/a	n/a	n/a	n/a	n/a	red
53.4515	1.0167	ITI	n/a	n/a	n/a	n/a	n/a	n/a	n/a	n/a
54.4682	0.5167	FIXCROSS	n/a	n/a	n/a	n/a	n/a	n/a	n/a	n/a
54.9848	0.7167	INK	6	Neutral	xxxxx	xxxxx	czerwony	red	hit	n/a
55.6701	n/a	RESPONSE	n/a	n/a	n/a	n/a	n/a	n/a	n/a	red
55.7015	1.0167	ITI	n/a	n/a	n/a	n/a	n/a	n/a	n/a	n/a
56.7182	0.5167	FIXCROSS	n/a	n/a	n/a	n/a	n/a	n/a	n/a	n/a
57.2349	0.5167	INK	7	Neutral	xxxxxxx	xxxxxxx	niebieski	blue	hit	n/a
57.7302	n/a	RESPONSE	n/a	n/a	n/a	n/a	n/a	n/a	n/a	blue
57.7515	1.0167	ITI	n/a	n/a	n/a	n/a	n/a	n/a	n/a	n/a
58.7682	0.5167	FIXCROSS	n/a	n/a	n/a	n/a	n/a	n/a	n/a	n/a
59.2849	0.7833	INK	8	Incongruent	niebieski	blue	czerwony	red	hit	n/a
60.0458	n/a	RESPONSE	n/a	n/a	n/a	n/a	n/a	n/a	n/a	red
60.0682	1.0167	ITI	n/a	n/a	n/a	n/a	n/a	n/a	n/a	n/a
61.0849	0.5167	FIXCROSS	n/a	n/a	n/a	n/a	n/a	n/a	n/a	n/a
61.6016	0.4334	INK	9	Neutral	xxxxxxxxx	xxxxxxxxx	czerwony	red	hit	n/a
62.0101	n/a	RESPONSE	n/a	n/a	n/a	n/a	n/a	n/a	n/a	red
62.0349	1.0167	ITI	n/a	n/a	n/a	n/a	n/a	n/a	n/a	n/a
63.0516	0.5167	FIXCROSS	n/a	n/a	n/a	n/a	n/a	n/a	n/a	n/a
63.5683	0.7	INK	10	Neutral	xxxxxxxx	xxxxxxxx	żółty	yellow	hit	n/a
64.2459	n/a	RESPONSE	n/a	n/a	n/a	n/a	n/a	n/a	n/a	yellow
64.2683	1.0167	ITI	n/a	n/a	n/a	n/a	n/a	n/a	n/a	n/a
65.285	0.5167	FIXCROSS	n/a	n/a	n/a	n/a	n/a	n/a	n/a	n/a
65.8016	0.65	INK	11	Neutral	xxxxxxxx	xxxxxxxx	zielony	green	hit	n/a
66.4337	n/a	RESPONSE	n/a	n/a	n/a	n/a	n/a	n/a	n/a	green
66.4516	1.0167	ITI	n/a	n/a	n/a	n/a	n/a	n/a	n/a	n/a
67.4683	0.5167	FIXCROSS	n/a	n/a	n/a	n/a	n/a	n/a	n/a	n/a
67.985	0.8167	INK	12	Incongruent	czerwony	red	żółty	yellow	hit	n/a
68.7812	n/a	RESPONSE	n/a	n/a	n/a	n/a	n/a	n/a	n/a	yellow
68.8017	1.0167	ITI	n/a	n/a	n/a	n/a	n/a	n/a	n/a	n/a
69.8183	0.5167	FIXCROSS	n/a	n/a	n/a	n/a	n/a	n/a	n/a	n/a
70.335	1.0667	INK	13	Incongruent	zielony	green	czerwony	red	hit	n/a
71.3843	n/a	RESPONSE	n/a	n/a	n/a	n/a	n/a	n/a	n/a	red
71.4017	1.0167	ITI	n/a	n/a	n/a	n/a	n/a	n/a	n/a	n/a
72.4184	0.5167	FIXCROSS	n/a	n/a	n/a	n/a	n/a	n/a	n/a	n/a
72.9351	0.7	INK	14	Neutral	xxxxx	xxxxx	czerwony	red	hit	n/a
73.6041	n/a	RESPONSE	n/a	n/a	n/a	n/a	n/a	n/a	n/a	red
73.6351	1.0167	ITI	n/a	n/a	n/a	n/a	n/a	n/a	n/a	n/a
74.6517	0.5167	FIXCROSS	n/a	n/a	n/a	n/a	n/a	n/a	n/a	n/a
75.1684	0.6667	INK	15	Neutral	xxxxxxxx	xxxxxxxx	niebieski	blue	hit	n/a
75.8079	n/a	RESPONSE	n/a	n/a	n/a	n/a	n/a	n/a	n/a	blue
75.8351	1.0167	ITI	n/a	n/a	n/a	n/a	n/a	n/a	n/a	n/a
76.8518	0.5167	FIXCROSS	n/a	n/a	n/a	n/a	n/a	n/a	n/a	n/a
77.3684	0.8667	INK	16	Neutral	xxxxxxx	xxxxxxx	żółty	yellow	hit	n/a
78.2034	n/a	RESPONSE	n/a	n/a	n/a	n/a	n/a	n/a	n/a	yellow
78.2351	1.0167	ITI	n/a	n/a	n/a	n/a	n/a	n/a	n/a	n/a
79.2518	0.5167	FIXCROSS	n/a	n/a	n/a	n/a	n/a	n/a	n/a	n/a
79.7685	1.15	INK	17	Incongruent	żółty	yellow	niebieski	blue	hit	n/a
80.8863	n/a	RESPONSE	n/a	n/a	n/a	n/a	n/a	n/a	n/a	blue
80.9185	1.0167	ITI	n/a	n/a	n/a	n/a	n/a	n/a	n/a	n/a
81.9352	0.5167	FIXCROSS	n/a	n/a	n/a	n/a	n/a	n/a	n/a	n/a
82.4518	0.6667	INK	18	Neutral	xxxxxxxxx	xxxxxxxxx	żółty	yellow	hit	n/a
83.0901	n/a	RESPONSE	n/a	n/a	n/a	n/a	n/a	n/a	n/a	yellow
83.1185	1.0167	ITI	n/a	n/a	n/a	n/a	n/a	n/a	n/a	n/a
84.1352	0.5167	FIXCROSS	n/a	n/a	n/a	n/a	n/a	n/a	n/a	n/a
84.6519	0.9	INK	19	Neutral	xxxxxxxx	xxxxxxxx	zielony	green	hit	n/a
85.5176	n/a	RESPONSE	n/a	n/a	n/a	n/a	n/a	n/a	n/a	green
85.5519	1.0167	ITI	n/a	n/a	n/a	n/a	n/a	n/a	n/a	n/a
86.5686	0.5167	FIXCROSS	n/a	n/a	n/a	n/a	n/a	n/a	n/a	n/a
87.0852	0.7667	INK	20	Incongruent	zielony	green	czerwony	red	hit	n/a
87.8331	n/a	RESPONSE	n/a	n/a	n/a	n/a	n/a	n/a	n/a	red
87.8519	1.0167	ITI	n/a	n/a	n/a	n/a	n/a	n/a	n/a	n/a
88.8686	0.5167	FIXCROSS	n/a	n/a	n/a	n/a	n/a	n/a	n/a	n/a
89.3853	0.7667	INK	21	Neutral	xxxxxxx	xxxxxxx	żółty	yellow	hit	n/a
90.1328	n/a	RESPONSE	n/a	n/a	n/a	n/a	n/a	n/a	n/a	yellow
90.1519	1.0167	ITI	n/a	n/a	n/a	n/a	n/a	n/a	n/a	n/a
91.1686	0.5167	FIXCROSS	n/a	n/a	n/a	n/a	n/a	n/a	n/a	n/a
91.6853	0.7167	INK	22	Incongruent	zielony	green	niebieski	blue	hit	n/a
92.3686	n/a	RESPONSE	n/a	n/a	n/a	n/a	n/a	n/a	n/a	blue
92.4019	1.0167	ITI	n/a	n/a	n/a	n/a	n/a	n/a	n/a	n/a
93.4186	0.5167	FIXCROSS	n/a	n/a	n/a	n/a	n/a	n/a	n/a	n/a
93.9353	0.8167	INK	23	Incongruent	czerwony	red	zielony	green	hit	n/a
94.732	n/a	RESPONSE	n/a	n/a	n/a	n/a	n/a	n/a	n/a	green
94.752	1.0167	ITI	n/a	n/a	n/a	n/a	n/a	n/a	n/a	n/a
95.7687	0.5167	FIXCROSS	n/a	n/a	n/a	n/a	n/a	n/a	n/a	n/a
96.2853	0.8333	INK	24	Incongruent	czerwony	red	żółty	yellow	hit	n/a
97.0956	n/a	RESPONSE	n/a	n/a	n/a	n/a	n/a	n/a	n/a	yellow
97.1187	1.0167	ITI	n/a	n/a	n/a	n/a	n/a	n/a	n/a	n/a
98.1354	0.5167	FIXCROSS	n/a	n/a	n/a	n/a	n/a	n/a	n/a	n/a
98.652	0.6667	INK	25	Incongruent	zielony	green	żółty	yellow	hit	n/a
99.2995	n/a	RESPONSE	n/a	n/a	n/a	n/a	n/a	n/a	n/a	yellow
99.3187	1.0167	ITI	n/a	n/a	n/a	n/a	n/a	n/a	n/a	n/a
100.3354	0.5167	FIXCROSS	n/a	n/a	n/a	n/a	n/a	n/a	n/a	n/a
100.8521	0.9	INK	26	Incongruent	żółty	yellow	zielony	green	hit	n/a
101.7268	n/a	RESPONSE	n/a	n/a	n/a	n/a	n/a	n/a	n/a	green
101.7521	1.0167	ITI	n/a	n/a	n/a	n/a	n/a	n/a	n/a	n/a
102.7687	0.5167	FIXCROSS	n/a	n/a	n/a	n/a	n/a	n/a	n/a	n/a
103.2854	1.4667	INK	27	Incongruent	niebieski	blue	zielony	green	hit	n/a
104.7291	n/a	RESPONSE	n/a	n/a	n/a	n/a	n/a	n/a	n/a	green
104.7521	1.0167	ITI	n/a	n/a	n/a	n/a	n/a	n/a	n/a	n/a
105.7688	0.5167	FIXCROSS	n/a	n/a	n/a	n/a	n/a	n/a	n/a	n/a
106.2854	0.6167	INK	28	Neutral	xxxxx	xxxxx	zielony	green	hit	n/a
106.8691	n/a	RESPONSE	n/a	n/a	n/a	n/a	n/a	n/a	n/a	green
106.9021	1.0167	ITI	n/a	n/a	n/a	n/a	n/a	n/a	n/a	n/a
107.9188	0.5167	FIXCROSS	n/a	n/a	n/a	n/a	n/a	n/a	n/a	n/a
108.4355	0.75	INK	29	Neutral	xxxxxxxx	xxxxxxxx	żółty	yellow	hit	n/a
109.1526	n/a	RESPONSE	n/a	n/a	n/a	n/a	n/a	n/a	n/a	yellow
109.1855	1.0167	ITI	n/a	n/a	n/a	n/a	n/a	n/a	n/a	n/a
110.2022	0.5167	FIXCROSS	n/a	n/a	n/a	n/a	n/a	n/a	n/a	n/a
110.7188	0.75	INK	30	Incongruent	zielony	green	żółty	yellow	hit	n/a
111.4364	n/a	RESPONSE	n/a	n/a	n/a	n/a	n/a	n/a	n/a	yellow
111.4689	1.0167	ITI	n/a	n/a	n/a	n/a	n/a	n/a	n/a	n/a
112.4855	0.5167	FIXCROSS	n/a	n/a	n/a	n/a	n/a	n/a	n/a	n/a
113.0022	0.4833	INK	31	Neutral	xxxxx	xxxxx	czerwony	red	hit	n/a
113.4645	n/a	RESPONSE	n/a	n/a	n/a	n/a	n/a	n/a	n/a	red
113.4855	1.0167	ITI	n/a	n/a	n/a	n/a	n/a	n/a	n/a	n/a
114.5022	0.5167	FIXCROSS	n/a	n/a	n/a	n/a	n/a	n/a	n/a	n/a
115.0189	0.9	INK	32	Neutral	xxxxx	xxxxx	zielony	green	hit	n/a
115.892	n/a	RESPONSE	n/a	n/a	n/a	n/a	n/a	n/a	n/a	green
115.9189	1.0167	ITI	n/a	n/a	n/a	n/a	n/a	n/a	n/a	n/a
116.9356	0.5167	FIXCROSS	n/a	n/a	n/a	n/a	n/a	n/a	n/a	n/a
117.4523	0.7167	INK	33	Neutral	xxxxxxxx	xxxxxxxx	niebieski	blue	hit	n/a
118.1437	n/a	RESPONSE	n/a	n/a	n/a	n/a	n/a	n/a	n/a	blue
118.1689	1.0167	ITI	n/a	n/a	n/a	n/a	n/a	n/a	n/a	n/a
119.1856	0.5167	FIXCROSS	n/a	n/a	n/a	n/a	n/a	n/a	n/a	n/a
119.7023	0.95	INK	34	Neutral	xxxxx	xxxxx	niebieski	blue	hit	n/a
120.635	n/a	RESPONSE	n/a	n/a	n/a	n/a	n/a	n/a	n/a	blue
120.6523	1.0167	ITI	n/a	n/a	n/a	n/a	n/a	n/a	n/a	n/a
121.669	0.5167	FIXCROSS	n/a	n/a	n/a	n/a	n/a	n/a	n/a	n/a
122.1856	0.8167	INK	35	Incongruent	żółty	yellow	czerwony	red	hit	n/a
122.9826	n/a	RESPONSE	n/a	n/a	n/a	n/a	n/a	n/a	n/a	red
123.0023	1.0167	ITI	n/a	n/a	n/a	n/a	n/a	n/a	n/a	n/a
124.019	0.5167	FIXCROSS	n/a	n/a	n/a	n/a	n/a	n/a	n/a	n/a
124.5357	0.8	INK	36	Neutral	xxxxxxxxx	xxxxxxxxx	żółty	yellow	hit	n/a
125.314	n/a	RESPONSE	n/a	n/a	n/a	n/a	n/a	n/a	n/a	yellow
125.3357	1.0167	ITI	n/a	n/a	n/a	n/a	n/a	n/a	n/a	n/a
126.3524	0.5167	FIXCROSS	n/a	n/a	n/a	n/a	n/a	n/a	n/a	n/a
126.869	0.8167	INK	37	Neutral	xxxxxxxx	xxxxxxxx	zielony	green	hit	n/a
127.6616	n/a	RESPONSE	n/a	n/a	n/a	n/a	n/a	n/a	n/a	green
127.6857	1.0167	ITI	n/a	n/a	n/a	n/a	n/a	n/a	n/a	n/a
128.7024	0.5167	FIXCROSS	n/a	n/a	n/a	n/a	n/a	n/a	n/a	n/a
129.2191	0.6	INK	38	Neutral	xxxxxxx	xxxxxxx	czerwony	red	hit	n/a
129.8015	n/a	RESPONSE	n/a	n/a	n/a	n/a	n/a	n/a	n/a	red
129.8191	1.0167	ITI	n/a	n/a	n/a	n/a	n/a	n/a	n/a	n/a
130.8357	0.5167	FIXCROSS	n/a	n/a	n/a	n/a	n/a	n/a	n/a	n/a
131.3524	0.8333	INK	39	Neutral	xxxxxxxxx	xxxxxxxxx	zielony	green	hit	n/a
132.1651	n/a	RESPONSE	n/a	n/a	n/a	n/a	n/a	n/a	n/a	green
132.1858	1.0167	ITI	n/a	n/a	n/a	n/a	n/a	n/a	n/a	n/a
133.2024	0.5167	FIXCROSS	n/a	n/a	n/a	n/a	n/a	n/a	n/a	n/a
133.7191	0.55	INK	40	Neutral	xxxxx	xxxxx	niebieski	blue	hit	n/a
134.2412	n/a	RESPONSE	n/a	n/a	n/a	n/a	n/a	n/a	n/a	blue
134.2691	1.0167	ITI	n/a	n/a	n/a	n/a	n/a	n/a	n/a	n/a
135.2858	0.5167	FIXCROSS	n/a	n/a	n/a	n/a	n/a	n/a	n/a	n/a
135.8025	1.45	INK	41	Incongruent	niebieski	blue	zielony	green	hit	n/a
137.2275	n/a	RESPONSE	n/a	n/a	n/a	n/a	n/a	n/a	n/a	green
137.2525	1.0167	ITI	n/a	n/a	n/a	n/a	n/a	n/a	n/a	n/a
138.2692	0.5167	FIXCROSS	n/a	n/a	n/a	n/a	n/a	n/a	n/a	n/a
138.7858	0.4667	INK	42	Neutral	xxxxxxx	xxxxxxx	czerwony	red	hit	n/a
139.2237	n/a	RESPONSE	n/a	n/a	n/a	n/a	n/a	n/a	n/a	red
139.2525	1.0167	ITI	n/a	n/a	n/a	n/a	n/a	n/a	n/a	n/a
140.2692	0.5167	FIXCROSS	n/a	n/a	n/a	n/a	n/a	n/a	n/a	n/a
140.7859	0.6667	INK	43	Incongruent	zielony	green	żółty	yellow	hit	n/a
141.4276	n/a	RESPONSE	n/a	n/a	n/a	n/a	n/a	n/a	n/a	yellow
141.4525	1.0167	ITI	n/a	n/a	n/a	n/a	n/a	n/a	n/a	n/a
142.4692	0.5167	FIXCROSS	n/a	n/a	n/a	n/a	n/a	n/a	n/a	n/a
142.9859	0.6333	INK	44	Neutral	xxxxxxx	xxxxxxx	niebieski	blue	hit	n/a
143.5994	n/a	RESPONSE	n/a	n/a	n/a	n/a	n/a	n/a	n/a	blue
143.6192	1.0167	ITI	n/a	n/a	n/a	n/a	n/a	n/a	n/a	n/a
144.6359	0.5167	FIXCROSS	n/a	n/a	n/a	n/a	n/a	n/a	n/a	n/a
145.1526	0.65	INK	45	Incongruent	zielony	green	czerwony	red	hit	n/a
145.7713	n/a	RESPONSE	n/a	n/a	n/a	n/a	n/a	n/a	n/a	red
145.8026	1.0167	ITI	n/a	n/a	n/a	n/a	n/a	n/a	n/a	n/a
146.8193	0.5167	FIXCROSS	n/a	n/a	n/a	n/a	n/a	n/a	n/a	n/a
147.3359	1.1	INK	46	Incongruent	niebieski	blue	żółty	yellow	hit	n/a
148.4063	n/a	RESPONSE	n/a	n/a	n/a	n/a	n/a	n/a	n/a	yellow
148.4359	1.0167	ITI	n/a	n/a	n/a	n/a	n/a	n/a	n/a	n/a
149.4526	0.5167	FIXCROSS	n/a	n/a	n/a	n/a	n/a	n/a	n/a	n/a
149.9693	0.9667	INK	47	Incongruent	żółty	yellow	zielony	green	hit	n/a
150.9135	n/a	RESPONSE	n/a	n/a	n/a	n/a	n/a	n/a	n/a	green
150.936	1.0167	ITI	n/a	n/a	n/a	n/a	n/a	n/a	n/a	n/a
151.9527	0.5167	FIXCROSS	n/a	n/a	n/a	n/a	n/a	n/a	n/a	n/a
152.4693	0.65	INK	48	Neutral	xxxxxxx	xxxxxxx	czerwony	red	hit	n/a
153.1013	n/a	RESPONSE	n/a	n/a	n/a	n/a	n/a	n/a	n/a	red
153.1193	1.0167	ITI	n/a	n/a	n/a	n/a	n/a	n/a	n/a	n/a
154.136	0.5167	FIXCROSS	n/a	n/a	n/a	n/a	n/a	n/a	n/a	n/a
154.6527	0.6333	INK	49	Neutral	xxxxxxxxx	xxxxxxxxx	czerwony	red	hit	n/a
155.2573	n/a	RESPONSE	n/a	n/a	n/a	n/a	n/a	n/a	n/a	red
155.286	1.0167	ITI	n/a	n/a	n/a	n/a	n/a	n/a	n/a	n/a
156.3027	0.5167	FIXCROSS	n/a	n/a	n/a	n/a	n/a	n/a	n/a	n/a
156.8194	0.9833	INK	50	Neutral	xxxxx	xxxxx	niebieski	blue	hit	n/a
157.7806	n/a	RESPONSE	n/a	n/a	n/a	n/a	n/a	n/a	n/a	blue
157.8027	1.0167	ITI	n/a	n/a	n/a	n/a	n/a	n/a	n/a	n/a
158.8194	0.5167	FIXCROSS	n/a	n/a	n/a	n/a	n/a	n/a	n/a	n/a
159.3361	0.7	INK	51	Incongruent	żółty	yellow	niebieski	blue	hit	n/a
160.0163	n/a	RESPONSE	n/a	n/a	n/a	n/a	n/a	n/a	n/a	blue
160.0361	1.0167	ITI	n/a	n/a	n/a	n/a	n/a	n/a	n/a	n/a
161.0528	0.5167	FIXCROSS	n/a	n/a	n/a	n/a	n/a	n/a	n/a	n/a
161.5694	1.0167	INK	52	Incongruent	czerwony	red	żółty	yellow	hit	n/a
162.5555	n/a	RESPONSE	n/a	n/a	n/a	n/a	n/a	n/a	n/a	yellow
162.5861	1.0167	ITI	n/a	n/a	n/a	n/a	n/a	n/a	n/a	n/a
163.6028	0.5167	FIXCROSS	n/a	n/a	n/a	n/a	n/a	n/a	n/a	n/a
164.1195	1.0667	INK	53	Neutral	xxxxxxxx	xxxxxxxx	niebieski	blue	hit	n/a
165.1585	n/a	RESPONSE	n/a	n/a	n/a	n/a	n/a	n/a	n/a	blue
165.1861	1.0167	ITI	n/a	n/a	n/a	n/a	n/a	n/a	n/a	n/a
166.2028	0.5167	FIXCROSS	n/a	n/a	n/a	n/a	n/a	n/a	n/a	n/a
166.7195	0.85	INK	54	Incongruent	żółty	yellow	czerwony	red	hit	n/a
167.5379	n/a	RESPONSE	n/a	n/a	n/a	n/a	n/a	n/a	n/a	red
167.5695	1.0167	ITI	n/a	n/a	n/a	n/a	n/a	n/a	n/a	n/a
168.5862	0.5167	FIXCROSS	n/a	n/a	n/a	n/a	n/a	n/a	n/a	n/a
169.1029	0.7667	INK	55	Neutral	xxxxxxxx	xxxxxxxx	żółty	yellow	hit	n/a
169.8378	n/a	RESPONSE	n/a	n/a	n/a	n/a	n/a	n/a	n/a	yellow
169.8695	1.0167	ITI	n/a	n/a	n/a	n/a	n/a	n/a	n/a	n/a
170.8862	0.5167	FIXCROSS	n/a	n/a	n/a	n/a	n/a	n/a	n/a	n/a
171.4029	0.95	INK	56	Incongruent	czerwony	red	niebieski	blue	hit	n/a
172.329	n/a	RESPONSE	n/a	n/a	n/a	n/a	n/a	n/a	n/a	blue
172.3529	1.0167	ITI	n/a	n/a	n/a	n/a	n/a	n/a	n/a	n/a
173.3696	0.5167	FIXCROSS	n/a	n/a	n/a	n/a	n/a	n/a	n/a	n/a
173.8863	0.9333	INK	57	Incongruent	żółty	yellow	zielony	green	hit	n/a
174.7883	n/a	RESPONSE	n/a	n/a	n/a	n/a	n/a	n/a	n/a	green
174.8196	1.0167	ITI	n/a	n/a	n/a	n/a	n/a	n/a	n/a	n/a
175.8363	0.5167	FIXCROSS	n/a	n/a	n/a	n/a	n/a	n/a	n/a	n/a
176.353	0.7667	INK	58	Incongruent	zielony	green	niebieski	blue	hit	n/a
177.0879	n/a	RESPONSE	n/a	n/a	n/a	n/a	n/a	n/a	n/a	blue
177.1196	1.0167	ITI	n/a	n/a	n/a	n/a	n/a	n/a	n/a	n/a
178.1363	0.5167	FIXCROSS	n/a	n/a	n/a	n/a	n/a	n/a	n/a	n/a
178.653	0.75	INK	59	Neutral	xxxxxxx	xxxxxxx	żółty	yellow	hit	n/a
179.3715	n/a	RESPONSE	n/a	n/a	n/a	n/a	n/a	n/a	n/a	yellow
179.403	1.0167	ITI	n/a	n/a	n/a	n/a	n/a	n/a	n/a	n/a
180.4197	0.5167	FIXCROSS	n/a	n/a	n/a	n/a	n/a	n/a	n/a	n/a
180.9363	0.7334	INK	60	Incongruent	żółty	yellow	czerwony	red	hit	n/a
181.6393	n/a	RESPONSE	n/a	n/a	n/a	n/a	n/a	n/a	n/a	red
181.6697	1.0167	ITI	n/a	n/a	n/a	n/a	n/a	n/a	n/a	n/a
182.6864	0.5167	FIXCROSS	n/a	n/a	n/a	n/a	n/a	n/a	n/a	n/a
183.203	0.75	INK	61	Incongruent	niebieski	blue	żółty	yellow	hit	n/a
183.923	n/a	RESPONSE	n/a	n/a	n/a	n/a	n/a	n/a	n/a	yellow
183.953	1.0167	ITI	n/a	n/a	n/a	n/a	n/a	n/a	n/a	n/a
184.9697	0.5167	FIXCROSS	n/a	n/a	n/a	n/a	n/a	n/a	n/a	n/a
185.4864	0.75	INK	62	Incongruent	zielony	green	niebieski	blue	hit	n/a
186.2066	n/a	RESPONSE	n/a	n/a	n/a	n/a	n/a	n/a	n/a	blue
186.2364	1.0167	ITI	n/a	n/a	n/a	n/a	n/a	n/a	n/a	n/a
187.2531	0.5167	FIXCROSS	n/a	n/a	n/a	n/a	n/a	n/a	n/a	n/a
187.7698	0.7333	INK	63	Neutral	xxxxx	xxxxx	zielony	green	hit	n/a
188.4743	n/a	RESPONSE	n/a	n/a	n/a	n/a	n/a	n/a	n/a	green
188.5031	1.0167	ITI	n/a	n/a	n/a	n/a	n/a	n/a	n/a	n/a
189.5198	0.5167	FIXCROSS	n/a	n/a	n/a	n/a	n/a	n/a	n/a	n/a
190.0364	0.7167	INK	64	Neutral	xxxxxxxxx	xxxxxxxxx	żółty	yellow	hit	n/a
190.7261	n/a	RESPONSE	n/a	n/a	n/a	n/a	n/a	n/a	n/a	yellow
190.7531	1.0167	ITI	n/a	n/a	n/a	n/a	n/a	n/a	n/a	n/a
191.7698	0.5167	FIXCROSS	n/a	n/a	n/a	n/a	n/a	n/a	n/a	n/a
192.2865	1.05	INK	65	Incongruent	czerwony	red	zielony	green	hit	n/a
193.3132	n/a	RESPONSE	n/a	n/a	n/a	n/a	n/a	n/a	n/a	green
193.3365	1.0167	ITI	n/a	n/a	n/a	n/a	n/a	n/a	n/a	n/a
194.3532	0.5167	FIXCROSS	n/a	n/a	n/a	n/a	n/a	n/a	n/a	n/a
194.8698	0.6	INK	66	Incongruent	czerwony	red	zielony	green	hit	n/a
195.4372	n/a	RESPONSE	n/a	n/a	n/a	n/a	n/a	n/a	n/a	green
195.4699	1.0167	ITI	n/a	n/a	n/a	n/a	n/a	n/a	n/a	n/a
196.4865	0.5167	FIXCROSS	n/a	n/a	n/a	n/a	n/a	n/a	n/a	n/a
197.0032	0.7833	INK	67	Neutral	xxxxxxxxx	xxxxxxxxx	zielony	green	hit	n/a
197.7528	n/a	RESPONSE	n/a	n/a	n/a	n/a	n/a	n/a	n/a	green
197.7865	1.0167	ITI	n/a	n/a	n/a	n/a	n/a	n/a	n/a	n/a
198.8032	0.5167	FIXCROSS	n/a	n/a	n/a	n/a	n/a	n/a	n/a	n/a
199.3199	1.2333	INK	68	Incongruent	czerwony	red	niebieski	blue	hit	n/a
200.5315	n/a	RESPONSE	n/a	n/a	n/a	n/a	n/a	n/a	n/a	blue
200.5532	1.0167	ITI	n/a	n/a	n/a	n/a	n/a	n/a	n/a	n/a
201.5699	0.5167	FIXCROSS	n/a	n/a	n/a	n/a	n/a	n/a	n/a	n/a
202.0866	0.85	INK	69	Incongruent	czerwony	red	niebieski	blue	hit	n/a
202.911	n/a	RESPONSE	n/a	n/a	n/a	n/a	n/a	n/a	n/a	blue
202.9366	1.0167	ITI	n/a	n/a	n/a	n/a	n/a	n/a	n/a	n/a
203.9533	0.5167	FIXCROSS	n/a	n/a	n/a	n/a	n/a	n/a	n/a	n/a
204.47	1.2167	INK	70	Neutral	xxxxxxxxx	xxxxxxxxx	zielony	green	hit	n/a
205.6577	n/a	RESPONSE	n/a	n/a	n/a	n/a	n/a	n/a	n/a	green
205.6866	1.0167	ITI	n/a	n/a	n/a	n/a	n/a	n/a	n/a	n/a
206.7033	0.5167	FIXCROSS	n/a	n/a	n/a	n/a	n/a	n/a	n/a	n/a
207.22	0.8	INK	71	Neutral	xxxxxxxxx	xxxxxxxxx	czerwony	red	hit	n/a
207.9893	n/a	RESPONSE	n/a	n/a	n/a	n/a	n/a	n/a	n/a	red
208.02	1.0167	ITI	n/a	n/a	n/a	n/a	n/a	n/a	n/a	n/a
209.0367	0.5167	FIXCROSS	n/a	n/a	n/a	n/a	n/a	n/a	n/a	n/a
209.5533	0.75	INK	72	Incongruent	żółty	yellow	niebieski	blue	hit	n/a
210.2731	n/a	RESPONSE	n/a	n/a	n/a	n/a	n/a	n/a	n/a	blue
210.3034	1.0833	ITI	n/a	n/a	n/a	n/a	n/a	n/a	n/a	n/a
222.2822	n/a	RESPONSE	n/a	n/a	n/a	n/a	n/a	n/a	n/a	n/a
222.3368	1.0167	ITI	n/a	n/a	n/a	n/a	n/a	n/a	n/a	n/a
223.3535	0.5167	FIXCROSS	n/a	n/a	n/a	n/a	n/a	n/a	n/a	n/a
223.8702	1.15	T_COLOR_NAME	1	Neutral	czerwony	red	Neutral	Neutral	hit	n/a
224.9971	n/a	RESPONSE	n/a	n/a	n/a	n/a	n/a	n/a	n/a	red
225.0202	0.5167	FEEDBACK	n/a	n/a	n/a	n/a	n/a	n/a	n/a	n/a
225.5369	1.0167	ITI	n/a	n/a	n/a	n/a	n/a	n/a	n/a	n/a
226.5536	0.5167	FIXCROSS	n/a	n/a	n/a	n/a	n/a	n/a	n/a	n/a
227.0702	1.3667	T_COLOR_NAME	2	Incongruent	zielony	green	niebieski	blue	hit	n/a
228.4145	n/a	RESPONSE	n/a	n/a	n/a	n/a	n/a	n/a	n/a	green
228.4369	0.5167	FEEDBACK	n/a	n/a	n/a	n/a	n/a	n/a	n/a	n/a
228.9536	1.0167	ITI	n/a	n/a	n/a	n/a	n/a	n/a	n/a	n/a
229.9703	0.5167	FIXCROSS	n/a	n/a	n/a	n/a	n/a	n/a	n/a	n/a
230.4869	0.9	T_COLOR_NAME	3	Neutral	zielony	green	Neutral	Neutral	hit	n/a
231.353	n/a	RESPONSE	n/a	n/a	n/a	n/a	n/a	n/a	n/a	green
231.3869	0.5167	FEEDBACK	n/a	n/a	n/a	n/a	n/a	n/a	n/a	n/a
231.9036	1.0167	ITI	n/a	n/a	n/a	n/a	n/a	n/a	n/a	n/a
232.9203	0.5167	FIXCROSS	n/a	n/a	n/a	n/a	n/a	n/a	n/a	n/a
233.437	0.9834	T_COLOR_NAME	4	Neutral	żółty	yellow	Neutral	Neutral	hit	n/a
234.3873	n/a	RESPONSE	n/a	n/a	n/a	n/a	n/a	n/a	n/a	yellow
234.4203	0.5167	FEEDBACK	n/a	n/a	n/a	n/a	n/a	n/a	n/a	n/a
234.937	1.0167	ITI	n/a	n/a	n/a	n/a	n/a	n/a	n/a	n/a
235.9537	0.5167	FIXCROSS	n/a	n/a	n/a	n/a	n/a	n/a	n/a	n/a
236.4703	0.65	T_COLOR_NAME	5	Neutral	żółty	yellow	Neutral	Neutral	hit	n/a
237.0861	n/a	RESPONSE	n/a	n/a	n/a	n/a	n/a	n/a	n/a	yellow
237.1203	0.5167	FEEDBACK	n/a	n/a	n/a	n/a	n/a	n/a	n/a	n/a
237.637	1.0167	ITI	n/a	n/a	n/a	n/a	n/a	n/a	n/a	n/a
238.6537	0.5167	FIXCROSS	n/a	n/a	n/a	n/a	n/a	n/a	n/a	n/a
239.1704	0.7334	T_COLOR_NAME	6	Neutral	żółty	yellow	Neutral	Neutral	hit	n/a
239.8808	n/a	RESPONSE	n/a	n/a	n/a	n/a	n/a	n/a	n/a	yellow
239.9037	0.5167	FEEDBACK	n/a	n/a	n/a	n/a	n/a	n/a	n/a	n/a
240.4204	1.0167	ITI	n/a	n/a	n/a	n/a	n/a	n/a	n/a	n/a
241.4371	0.5167	FIXCROSS	n/a	n/a	n/a	n/a	n/a	n/a	n/a	n/a
241.9537	0.7833	T_COLOR_NAME	7	Neutral	niebieski	blue	Neutral	Neutral	hit	n/a
242.7075	n/a	RESPONSE	n/a	n/a	n/a	n/a	n/a	n/a	n/a	blue
242.7371	0.5167	FEEDBACK	n/a	n/a	n/a	n/a	n/a	n/a	n/a	n/a
243.2537	1.0167	ITI	n/a	n/a	n/a	n/a	n/a	n/a	n/a	n/a
244.2704	0.5167	FIXCROSS	n/a	n/a	n/a	n/a	n/a	n/a	n/a	n/a
244.7871	0.7167	T_COLOR_NAME	8	Incongruent	niebieski	blue	żółty	yellow	hit	n/a
245.4703	n/a	RESPONSE	n/a	n/a	n/a	n/a	n/a	n/a	n/a	blue
245.5038	0.5167	FEEDBACK	n/a	n/a	n/a	n/a	n/a	n/a	n/a	n/a
246.0204	1.0167	ITI	n/a	n/a	n/a	n/a	n/a	n/a	n/a	n/a
247.0371	0.5167	FIXCROSS	n/a	n/a	n/a	n/a	n/a	n/a	n/a	n/a
247.5538	0.85	T_COLOR_NAME	9	Neutral	czerwony	red	Neutral	Neutral	hit	n/a
248.3768	n/a	RESPONSE	n/a	n/a	n/a	n/a	n/a	n/a	n/a	red
248.4038	0.5167	FEEDBACK	n/a	n/a	n/a	n/a	n/a	n/a	n/a	n/a
248.9205	1.0167	ITI	n/a	n/a	n/a	n/a	n/a	n/a	n/a	n/a
249.9372	0.5167	FIXCROSS	n/a	n/a	n/a	n/a	n/a	n/a	n/a	n/a
250.4538	0.5167	T_COLOR_NAME	10	Incongruent	czerwony	red	niebieski	blue	hit	n/a
250.9478	n/a	RESPONSE	n/a	n/a	n/a	n/a	n/a	n/a	n/a	red
250.9705	0.5167	FEEDBACK	n/a	n/a	n/a	n/a	n/a	n/a	n/a	n/a
251.4872	1.0167	ITI	n/a	n/a	n/a	n/a	n/a	n/a	n/a	n/a
252.5039	0.5167	FIXCROSS	n/a	n/a	n/a	n/a	n/a	n/a	n/a	n/a
253.0205	1.7834	T_COLOR_NAME	11	Incongruent	żółty	yellow	czerwony	red	hit	n/a
254.7806	n/a	RESPONSE	n/a	n/a	n/a	n/a	n/a	n/a	n/a	yellow
254.8039	0.5167	FEEDBACK	n/a	n/a	n/a	n/a	n/a	n/a	n/a	n/a
255.3206	1.0167	ITI	n/a	n/a	n/a	n/a	n/a	n/a	n/a	n/a
256.3372	0.5167	FIXCROSS	n/a	n/a	n/a	n/a	n/a	n/a	n/a	n/a
256.8539	0.9833	T_COLOR_NAME	12	Incongruent	zielony	green	żółty	yellow	hit	n/a
257.8148	n/a	RESPONSE	n/a	n/a	n/a	n/a	n/a	n/a	n/a	green
257.8372	0.5167	FEEDBACK	n/a	n/a	n/a	n/a	n/a	n/a	n/a	n/a
258.3539	1.0333	ITI	n/a	n/a	n/a	n/a	n/a	n/a	n/a	n/a
260.2583	n/a	RESPONSE	n/a	n/a	n/a	n/a	n/a	n/a	n/a	n/a
260.3206	1.0167	ITI	n/a	n/a	n/a	n/a	n/a	n/a	n/a	n/a
261.3373	0.5167	FIXCROSS	n/a	n/a	n/a	n/a	n/a	n/a	n/a	n/a
261.854	1.45	COLOR_NAME	1	Incongruent	czerwony	red	zielony	green	hit	n/a
263.2765	n/a	RESPONSE	n/a	n/a	n/a	n/a	n/a	n/a	n/a	red
263.304	1.0167	ITI	n/a	n/a	n/a	n/a	n/a	n/a	n/a	n/a
264.3207	0.5167	FIXCROSS	n/a	n/a	n/a	n/a	n/a	n/a	n/a	n/a
264.8373	0.65	COLOR_NAME	2	Neutral	niebieski	blue	Neutral	Neutral	hit	n/a
265.4644	n/a	RESPONSE	n/a	n/a	n/a	n/a	n/a	n/a	n/a	blue
265.4873	1.0167	ITI	n/a	n/a	n/a	n/a	n/a	n/a	n/a	n/a
266.504	0.5167	FIXCROSS	n/a	n/a	n/a	n/a	n/a	n/a	n/a	n/a
267.0207	0.7333	COLOR_NAME	3	Incongruent	niebieski	blue	czerwony	red	hit	n/a
267.732	n/a	RESPONSE	n/a	n/a	n/a	n/a	n/a	n/a	n/a	blue
267.754	1.0167	ITI	n/a	n/a	n/a	n/a	n/a	n/a	n/a	n/a
268.7707	0.5167	FIXCROSS	n/a	n/a	n/a	n/a	n/a	n/a	n/a	n/a
269.2874	0.7167	COLOR_NAME	4	Neutral	czerwony	red	Neutral	Neutral	hit	n/a
269.9837	n/a	RESPONSE	n/a	n/a	n/a	n/a	n/a	n/a	n/a	red
270.0041	1.0167	ITI	n/a	n/a	n/a	n/a	n/a	n/a	n/a	n/a
271.0207	0.5167	FIXCROSS	n/a	n/a	n/a	n/a	n/a	n/a	n/a	n/a
271.5374	0.5333	COLOR_NAME	5	Neutral	niebieski	blue	Neutral	Neutral	hit	n/a
272.0439	n/a	RESPONSE	n/a	n/a	n/a	n/a	n/a	n/a	n/a	blue
272.0708	1.0167	ITI	n/a	n/a	n/a	n/a	n/a	n/a	n/a	n/a
273.0874	0.5167	FIXCROSS	n/a	n/a	n/a	n/a	n/a	n/a	n/a	n/a
273.6041	0.9833	COLOR_NAME	6	Neutral	żółty	yellow	Neutral	Neutral	hit	n/a
274.567	n/a	RESPONSE	n/a	n/a	n/a	n/a	n/a	n/a	n/a	yellow
274.5875	1.0167	ITI	n/a	n/a	n/a	n/a	n/a	n/a	n/a	n/a
275.6041	0.5167	FIXCROSS	n/a	n/a	n/a	n/a	n/a	n/a	n/a	n/a
276.1208	0.6833	COLOR_NAME	7	Incongruent	żółty	yellow	zielony	green	hit	n/a
276.7868	n/a	RESPONSE	n/a	n/a	n/a	n/a	n/a	n/a	n/a	yellow
276.8041	1.0167	ITI	n/a	n/a	n/a	n/a	n/a	n/a	n/a	n/a
277.8208	0.5167	FIXCROSS	n/a	n/a	n/a	n/a	n/a	n/a	n/a	n/a
278.3375	0.6833	COLOR_NAME	8	Neutral	czerwony	red	Neutral	Neutral	hit	n/a
278.9907	n/a	RESPONSE	n/a	n/a	n/a	n/a	n/a	n/a	n/a	red
279.0208	1.0167	ITI	n/a	n/a	n/a	n/a	n/a	n/a	n/a	n/a
280.0375	0.5167	FIXCROSS	n/a	n/a	n/a	n/a	n/a	n/a	n/a	n/a
280.5542	0.7333	COLOR_NAME	9	Incongruent	niebieski	blue	żółty	yellow	hit	n/a
281.2584	n/a	RESPONSE	n/a	n/a	n/a	n/a	n/a	n/a	n/a	blue
281.2875	1.0167	ITI	n/a	n/a	n/a	n/a	n/a	n/a	n/a	n/a
282.3042	0.5167	FIXCROSS	n/a	n/a	n/a	n/a	n/a	n/a	n/a	n/a
282.8209	0.9	COLOR_NAME	10	Incongruent	zielony	green	niebieski	blue	hit	n/a
283.7017	n/a	RESPONSE	n/a	n/a	n/a	n/a	n/a	n/a	n/a	green
283.7209	1.0167	ITI	n/a	n/a	n/a	n/a	n/a	n/a	n/a	n/a
284.7376	0.5167	FIXCROSS	n/a	n/a	n/a	n/a	n/a	n/a	n/a	n/a
285.2542	0.5167	COLOR_NAME	11	Incongruent	czerwony	red	niebieski	blue	hit	n/a
285.7459	n/a	RESPONSE	n/a	n/a	n/a	n/a	n/a	n/a	n/a	red
285.7709	1.0167	ITI	n/a	n/a	n/a	n/a	n/a	n/a	n/a	n/a
286.7876	0.5167	FIXCROSS	n/a	n/a	n/a	n/a	n/a	n/a	n/a	n/a
287.3043	1.0334	COLOR_NAME	12	Incongruent	żółty	yellow	niebieski	blue	hit	n/a
288.317	n/a	RESPONSE	n/a	n/a	n/a	n/a	n/a	n/a	n/a	yellow
288.3376	1.0167	ITI	n/a	n/a	n/a	n/a	n/a	n/a	n/a	n/a
289.3543	0.5167	FIXCROSS	n/a	n/a	n/a	n/a	n/a	n/a	n/a	n/a
289.871	0.6833	COLOR_NAME	13	Incongruent	czerwony	red	żółty	yellow	hit	n/a
290.5208	n/a	RESPONSE	n/a	n/a	n/a	n/a	n/a	n/a	n/a	red
290.5543	1.0167	ITI	n/a	n/a	n/a	n/a	n/a	n/a	n/a	n/a
291.571	0.5167	FIXCROSS	n/a	n/a	n/a	n/a	n/a	n/a	n/a	n/a
292.0877	1.05	COLOR_NAME	14	Incongruent	zielony	green	niebieski	blue	hit	n/a
293.108	n/a	RESPONSE	n/a	n/a	n/a	n/a	n/a	n/a	n/a	green
293.1377	1.0167	ITI	n/a	n/a	n/a	n/a	n/a	n/a	n/a	n/a
294.1543	0.5167	FIXCROSS	n/a	n/a	n/a	n/a	n/a	n/a	n/a	n/a
294.671	1.0167	COLOR_NAME	15	Incongruent	zielony	green	czerwony	red	hit	n/a
295.6631	n/a	RESPONSE	n/a	n/a	n/a	n/a	n/a	n/a	n/a	green
295.6877	1.0167	ITI	n/a	n/a	n/a	n/a	n/a	n/a	n/a	n/a
296.7044	0.5167	FIXCROSS	n/a	n/a	n/a	n/a	n/a	n/a	n/a	n/a
297.2211	0.6333	COLOR_NAME	16	Incongruent	niebieski	blue	czerwony	red	hit	n/a
297.8349	n/a	RESPONSE	n/a	n/a	n/a	n/a	n/a	n/a	n/a	blue
297.8544	1.0167	ITI	n/a	n/a	n/a	n/a	n/a	n/a	n/a	n/a
298.8711	0.5167	FIXCROSS	n/a	n/a	n/a	n/a	n/a	n/a	n/a	n/a
299.3877	0.9333	COLOR_NAME	17	Incongruent	żółty	yellow	niebieski	blue	hit	n/a
300.2942	n/a	RESPONSE	n/a	n/a	n/a	n/a	n/a	n/a	n/a	yellow
300.3211	1.0167	ITI	n/a	n/a	n/a	n/a	n/a	n/a	n/a	n/a
301.3378	0.5167	FIXCROSS	n/a	n/a	n/a	n/a	n/a	n/a	n/a	n/a
301.8544	0.5333	COLOR_NAME	18	Incongruent	żółty	yellow	czerwony	red	hit	n/a
302.3702	n/a	RESPONSE	n/a	n/a	n/a	n/a	n/a	n/a	n/a	yellow
302.3878	1.0167	ITI	n/a	n/a	n/a	n/a	n/a	n/a	n/a	n/a
303.4044	0.5167	FIXCROSS	n/a	n/a	n/a	n/a	n/a	n/a	n/a	n/a
303.9211	0.8	COLOR_NAME	19	Neutral	niebieski	blue	Neutral	Neutral	hit	n/a
304.7019	n/a	RESPONSE	n/a	n/a	n/a	n/a	n/a	n/a	n/a	blue
304.7211	1.0167	ITI	n/a	n/a	n/a	n/a	n/a	n/a	n/a	n/a
305.7378	0.5167	FIXCROSS	n/a	n/a	n/a	n/a	n/a	n/a	n/a	n/a
306.2545	0.7167	COLOR_NAME	20	Incongruent	czerwony	red	niebieski	blue	hit	n/a
306.9535	n/a	RESPONSE	n/a	n/a	n/a	n/a	n/a	n/a	n/a	red
306.9712	1.0167	ITI	n/a	n/a	n/a	n/a	n/a	n/a	n/a	n/a
307.9878	0.5167	FIXCROSS	n/a	n/a	n/a	n/a	n/a	n/a	n/a	n/a
308.5045	0.95	COLOR_NAME	21	Incongruent	zielony	green	żółty	yellow	hit	n/a
309.4288	n/a	RESPONSE	n/a	n/a	n/a	n/a	n/a	n/a	n/a	green
309.4545	1.0167	ITI	n/a	n/a	n/a	n/a	n/a	n/a	n/a	n/a
310.4712	0.5167	FIXCROSS	n/a	n/a	n/a	n/a	n/a	n/a	n/a	n/a
310.9879	0.6333	COLOR_NAME	22	Neutral	niebieski	blue	Neutral	Neutral	hit	n/a
311.6007	n/a	RESPONSE	n/a	n/a	n/a	n/a	n/a	n/a	n/a	blue
311.6212	1.0167	ITI	n/a	n/a	n/a	n/a	n/a	n/a	n/a	n/a
312.6379	0.5167	FIXCROSS	n/a	n/a	n/a	n/a	n/a	n/a	n/a	n/a
313.1546	0.7	COLOR_NAME	23	Neutral	czerwony	red	Neutral	Neutral	hit	n/a
313.8364	n/a	RESPONSE	n/a	n/a	n/a	n/a	n/a	n/a	n/a	red
313.8546	1.0167	ITI	n/a	n/a	n/a	n/a	n/a	n/a	n/a	n/a
314.8712	0.5167	FIXCROSS	n/a	n/a	n/a	n/a	n/a	n/a	n/a	n/a
315.3879	1.15	COLOR_NAME	24	Incongruent	niebieski	blue	zielony	green	hit	n/a
316.5193	n/a	RESPONSE	n/a	n/a	n/a	n/a	n/a	n/a	n/a	blue
316.5379	1.0167	ITI	n/a	n/a	n/a	n/a	n/a	n/a	n/a	n/a
317.5546	0.5167	FIXCROSS	n/a	n/a	n/a	n/a	n/a	n/a	n/a	n/a
318.0713	0.6167	COLOR_NAME	25	Neutral	czerwony	red	Neutral	Neutral	hit	n/a
318.6593	n/a	RESPONSE	n/a	n/a	n/a	n/a	n/a	n/a	n/a	red
318.688	1.0167	ITI	n/a	n/a	n/a	n/a	n/a	n/a	n/a	n/a
319.7046	0.5167	FIXCROSS	n/a	n/a	n/a	n/a	n/a	n/a	n/a	n/a
320.2213	0.6	COLOR_NAME	26	Incongruent	żółty	yellow	czerwony	red	hit	n/a
320.7991	n/a	RESPONSE	n/a	n/a	n/a	n/a	n/a	n/a	n/a	yellow
320.8213	1.0167	ITI	n/a	n/a	n/a	n/a	n/a	n/a	n/a	n/a
321.838	0.5167	FIXCROSS	n/a	n/a	n/a	n/a	n/a	n/a	n/a	n/a
322.3547	0.65	COLOR_NAME	27	Neutral	niebieski	blue	Neutral	Neutral	hit	n/a
322.987	n/a	RESPONSE	n/a	n/a	n/a	n/a	n/a	n/a	n/a	blue
323.0047	1.0167	ITI	n/a	n/a	n/a	n/a	n/a	n/a	n/a	n/a
324.0214	0.5167	FIXCROSS	n/a	n/a	n/a	n/a	n/a	n/a	n/a	n/a
324.538	1.1167	COLOR_NAME	28	Neutral	żółty	yellow	Neutral	Neutral	hit	n/a
325.6219	n/a	RESPONSE	n/a	n/a	n/a	n/a	n/a	n/a	n/a	yellow
325.6547	1.0167	ITI	n/a	n/a	n/a	n/a	n/a	n/a	n/a	n/a
326.6714	0.5167	FIXCROSS	n/a	n/a	n/a	n/a	n/a	n/a	n/a	n/a
327.1881	1.3167	COLOR_NAME	29	Neutral	zielony	green	Neutral	Neutral	hit	n/a
328.4806	n/a	RESPONSE	n/a	n/a	n/a	n/a	n/a	n/a	n/a	green
328.5048	1.0167	ITI	n/a	n/a	n/a	n/a	n/a	n/a	n/a	n/a
329.5214	0.5167	FIXCROSS	n/a	n/a	n/a	n/a	n/a	n/a	n/a	n/a
330.0381	0.6833	COLOR_NAME	30	Neutral	zielony	green	Neutral	Neutral	hit	n/a
330.7003	n/a	RESPONSE	n/a	n/a	n/a	n/a	n/a	n/a	n/a	green
330.7214	1.0167	ITI	n/a	n/a	n/a	n/a	n/a	n/a	n/a	n/a
331.7381	0.5167	FIXCROSS	n/a	n/a	n/a	n/a	n/a	n/a	n/a	n/a
332.2548	0.55	COLOR_NAME	31	Incongruent	zielony	green	niebieski	blue	hit	n/a
332.7764	n/a	RESPONSE	n/a	n/a	n/a	n/a	n/a	n/a	n/a	green
332.8048	1.0167	ITI	n/a	n/a	n/a	n/a	n/a	n/a	n/a	n/a
333.8215	0.5167	FIXCROSS	n/a	n/a	n/a	n/a	n/a	n/a	n/a	n/a
334.3381	0.7167	COLOR_NAME	32	Incongruent	niebieski	blue	żółty	yellow	hit	n/a
335.0282	n/a	RESPONSE	n/a	n/a	n/a	n/a	n/a	n/a	n/a	blue
335.0548	1.0167	ITI	n/a	n/a	n/a	n/a	n/a	n/a	n/a	n/a
336.0715	0.5167	FIXCROSS	n/a	n/a	n/a	n/a	n/a	n/a	n/a	n/a
336.5882	0.7167	COLOR_NAME	33	Neutral	żółty	yellow	Neutral	Neutral	hit	n/a
337.2798	n/a	RESPONSE	n/a	n/a	n/a	n/a	n/a	n/a	n/a	yellow
337.3049	1.0167	ITI	n/a	n/a	n/a	n/a	n/a	n/a	n/a	n/a
338.3215	0.5167	FIXCROSS	n/a	n/a	n/a	n/a	n/a	n/a	n/a	n/a
338.8382	0.6	COLOR_NAME	34	Neutral	niebieski	blue	Neutral	Neutral	hit	n/a
339.4199	n/a	RESPONSE	n/a	n/a	n/a	n/a	n/a	n/a	n/a	blue
339.4382	1.0167	ITI	n/a	n/a	n/a	n/a	n/a	n/a	n/a	n/a
340.4549	0.5167	FIXCROSS	n/a	n/a	n/a	n/a	n/a	n/a	n/a	n/a
340.9716	0.7167	COLOR_NAME	35	Incongruent	zielony	green	czerwony	red	hit	n/a
341.6556	n/a	RESPONSE	n/a	n/a	n/a	n/a	n/a	n/a	n/a	green
341.6882	1.0167	ITI	n/a	n/a	n/a	n/a	n/a	n/a	n/a	n/a
342.7049	0.5167	FIXCROSS	n/a	n/a	n/a	n/a	n/a	n/a	n/a	n/a
343.2216	0.6833	COLOR_NAME	36	Incongruent	żółty	yellow	zielony	green	hit	n/a
343.8753	n/a	RESPONSE	n/a	n/a	n/a	n/a	n/a	n/a	n/a	yellow
343.9049	1.0167	ITI	n/a	n/a	n/a	n/a	n/a	n/a	n/a	n/a
344.9216	0.5167	FIXCROSS	n/a	n/a	n/a	n/a	n/a	n/a	n/a	n/a
345.4383	0.7667	COLOR_NAME	37	Incongruent	żółty	yellow	czerwony	red	hit	n/a
346.1749	n/a	RESPONSE	n/a	n/a	n/a	n/a	n/a	n/a	n/a	yellow
346.205	1.0167	ITI	n/a	n/a	n/a	n/a	n/a	n/a	n/a	n/a
347.2216	0.5167	FIXCROSS	n/a	n/a	n/a	n/a	n/a	n/a	n/a	n/a
347.7383	1.0667	COLOR_NAME	38	Neutral	zielony	green	Neutral	Neutral	hit	n/a
348.778	n/a	RESPONSE	n/a	n/a	n/a	n/a	n/a	n/a	n/a	green
348.805	1.0167	ITI	n/a	n/a	n/a	n/a	n/a	n/a	n/a	n/a
349.8217	0.5167	FIXCROSS	n/a	n/a	n/a	n/a	n/a	n/a	n/a	n/a
350.3383	0.7	COLOR_NAME	39	Incongruent	zielony	green	czerwony	red	hit	n/a
351.0138	n/a	RESPONSE	n/a	n/a	n/a	n/a	n/a	n/a	n/a	green
351.0383	1.0167	ITI	n/a	n/a	n/a	n/a	n/a	n/a	n/a	n/a
352.055	0.5167	FIXCROSS	n/a	n/a	n/a	n/a	n/a	n/a	n/a	n/a
352.5717	0.5833	COLOR_NAME	40	Incongruent	niebieski	blue	zielony	green	hit	n/a
353.1378	n/a	RESPONSE	n/a	n/a	n/a	n/a	n/a	n/a	n/a	blue
353.155	1.0167	ITI	n/a	n/a	n/a	n/a	n/a	n/a	n/a	n/a
354.1717	0.5167	FIXCROSS	n/a	n/a	n/a	n/a	n/a	n/a	n/a	n/a
354.6884	0.5667	COLOR_NAME	41	Incongruent	niebieski	blue	czerwony	red	hit	n/a
355.2299	n/a	RESPONSE	n/a	n/a	n/a	n/a	n/a	n/a	n/a	blue
355.2551	1.0167	ITI	n/a	n/a	n/a	n/a	n/a	n/a	n/a	n/a
356.2717	0.5167	FIXCROSS	n/a	n/a	n/a	n/a	n/a	n/a	n/a	n/a
356.7884	0.4667	COLOR_NAME	42	Incongruent	niebieski	blue	żółty	yellow	hit	n/a
357.226	n/a	RESPONSE	n/a	n/a	n/a	n/a	n/a	n/a	n/a	blue
357.2551	1.0167	ITI	n/a	n/a	n/a	n/a	n/a	n/a	n/a	n/a
358.2718	0.5167	FIXCROSS	n/a	n/a	n/a	n/a	n/a	n/a	n/a	n/a
358.7884	0.65	COLOR_NAME	43	Incongruent	czerwony	red	żółty	yellow	hit	n/a
359.4138	n/a	RESPONSE	n/a	n/a	n/a	n/a	n/a	n/a	n/a	red
359.4384	1.0167	ITI	n/a	n/a	n/a	n/a	n/a	n/a	n/a	n/a
360.4551	0.5167	FIXCROSS	n/a	n/a	n/a	n/a	n/a	n/a	n/a	n/a
360.9718	0.65	COLOR_NAME	44	Neutral	żółty	yellow	Neutral	Neutral	hit	n/a
361.6017	n/a	RESPONSE	n/a	n/a	n/a	n/a	n/a	n/a	n/a	yellow
361.6218	1.0167	ITI	n/a	n/a	n/a	n/a	n/a	n/a	n/a	n/a
362.6385	0.5167	FIXCROSS	n/a	n/a	n/a	n/a	n/a	n/a	n/a	n/a
363.1552	0.9167	COLOR_NAME	45	Neutral	zielony	green	Neutral	Neutral	hit	n/a
364.0451	n/a	RESPONSE	n/a	n/a	n/a	n/a	n/a	n/a	n/a	green
364.0718	1.0167	ITI	n/a	n/a	n/a	n/a	n/a	n/a	n/a	n/a
365.0885	0.5167	FIXCROSS	n/a	n/a	n/a	n/a	n/a	n/a	n/a	n/a
365.6052	0.5833	COLOR_NAME	46	Neutral	niebieski	blue	Neutral	Neutral	hit	n/a
366.153	n/a	RESPONSE	n/a	n/a	n/a	n/a	n/a	n/a	n/a	blue
366.1885	1.0167	ITI	n/a	n/a	n/a	n/a	n/a	n/a	n/a	n/a
367.2052	0.5167	FIXCROSS	n/a	n/a	n/a	n/a	n/a	n/a	n/a	n/a
367.7219	1.1167	COLOR_NAME	47	Incongruent	zielony	green	żółty	yellow	hit	n/a
368.804	n/a	RESPONSE	n/a	n/a	n/a	n/a	n/a	n/a	n/a	green
368.8386	1.0167	ITI	n/a	n/a	n/a	n/a	n/a	n/a	n/a	n/a
369.8552	0.5167	FIXCROSS	n/a	n/a	n/a	n/a	n/a	n/a	n/a	n/a
370.3719	0.6	COLOR_NAME	48	Neutral	zielony	green	Neutral	Neutral	hit	n/a
370.944	n/a	RESPONSE	n/a	n/a	n/a	n/a	n/a	n/a	n/a	green
370.9719	1.0167	ITI	n/a	n/a	n/a	n/a	n/a	n/a	n/a	n/a
371.9886	0.5167	FIXCROSS	n/a	n/a	n/a	n/a	n/a	n/a	n/a	n/a
372.5053	0.7167	COLOR_NAME	49	Neutral	żółty	yellow	Neutral	Neutral	hit	n/a
373.1956	n/a	RESPONSE	n/a	n/a	n/a	n/a	n/a	n/a	n/a	yellow
373.2219	1.0167	ITI	n/a	n/a	n/a	n/a	n/a	n/a	n/a	n/a
374.2386	0.5167	FIXCROSS	n/a	n/a	n/a	n/a	n/a	n/a	n/a	n/a
374.7553	0.6833	COLOR_NAME	50	Neutral	zielony	green	Neutral	Neutral	hit	n/a
375.4155	n/a	RESPONSE	n/a	n/a	n/a	n/a	n/a	n/a	n/a	green
375.4386	1.0167	ITI	n/a	n/a	n/a	n/a	n/a	n/a	n/a	n/a
376.4553	0.5167	FIXCROSS	n/a	n/a	n/a	n/a	n/a	n/a	n/a	n/a
376.972	0.6167	COLOR_NAME	51	Neutral	zielony	green	Neutral	Neutral	hit	n/a
377.5555	n/a	RESPONSE	n/a	n/a	n/a	n/a	n/a	n/a	n/a	green
377.5887	1.0167	ITI	n/a	n/a	n/a	n/a	n/a	n/a	n/a	n/a
378.6053	0.5167	FIXCROSS	n/a	n/a	n/a	n/a	n/a	n/a	n/a	n/a
379.122	0.4833	COLOR_NAME	52	Neutral	czerwony	red	Neutral	Neutral	hit	n/a
379.5836	n/a	RESPONSE	n/a	n/a	n/a	n/a	n/a	n/a	n/a	red
379.6053	1.0167	ITI	n/a	n/a	n/a	n/a	n/a	n/a	n/a	n/a
380.622	0.5167	FIXCROSS	n/a	n/a	n/a	n/a	n/a	n/a	n/a	n/a
381.1387	0.9833	COLOR_NAME	53	Neutral	zielony	green	Neutral	Neutral	hit	n/a
382.0908	n/a	RESPONSE	n/a	n/a	n/a	n/a	n/a	n/a	n/a	green
382.122	1.0167	ITI	n/a	n/a	n/a	n/a	n/a	n/a	n/a	n/a
383.1387	0.5167	FIXCROSS	n/a	n/a	n/a	n/a	n/a	n/a	n/a	n/a
383.6554	0.5834	COLOR_NAME	54	Neutral	żółty	yellow	Neutral	Neutral	hit	n/a
384.2148	n/a	RESPONSE	n/a	n/a	n/a	n/a	n/a	n/a	n/a	yellow
384.2387	1.0167	ITI	n/a	n/a	n/a	n/a	n/a	n/a	n/a	n/a
385.2554	0.5167	FIXCROSS	n/a	n/a	n/a	n/a	n/a	n/a	n/a	n/a
385.7721	0.8	COLOR_NAME	55	Incongruent	czerwony	red	zielony	green	hit	n/a
386.5464	n/a	RESPONSE	n/a	n/a	n/a	n/a	n/a	n/a	n/a	red
386.5721	1.0167	ITI	n/a	n/a	n/a	n/a	n/a	n/a	n/a	n/a
387.5888	0.5167	FIXCROSS	n/a	n/a	n/a	n/a	n/a	n/a	n/a	n/a
388.1054	0.6833	COLOR_NAME	56	Neutral	żółty	yellow	Neutral	Neutral	hit	n/a
388.7661	n/a	RESPONSE	n/a	n/a	n/a	n/a	n/a	n/a	n/a	yellow
388.7888	1.0167	ITI	n/a	n/a	n/a	n/a	n/a	n/a	n/a	n/a
389.8055	0.5167	FIXCROSS	n/a	n/a	n/a	n/a	n/a	n/a	n/a	n/a
390.3221	0.6667	COLOR_NAME	57	Neutral	niebieski	blue	Neutral	Neutral	hit	n/a
390.9699	n/a	RESPONSE	n/a	n/a	n/a	n/a	n/a	n/a	n/a	blue
390.9888	1.0167	ITI	n/a	n/a	n/a	n/a	n/a	n/a	n/a	n/a
392.0055	0.5167	FIXCROSS	n/a	n/a	n/a	n/a	n/a	n/a	n/a	n/a
392.5222	0.6333	COLOR_NAME	58	Neutral	żółty	yellow	Neutral	Neutral	hit	n/a
393.1259	n/a	RESPONSE	n/a	n/a	n/a	n/a	n/a	n/a	n/a	yellow
393.1555	1.0167	ITI	n/a	n/a	n/a	n/a	n/a	n/a	n/a	n/a
394.1722	0.5167	FIXCROSS	n/a	n/a	n/a	n/a	n/a	n/a	n/a	n/a
394.6889	1.0	COLOR_NAME	59	Incongruent	żółty	yellow	niebieski	blue	hit	n/a
395.6649	n/a	RESPONSE	n/a	n/a	n/a	n/a	n/a	n/a	n/a	yellow
395.6889	1.0167	ITI	n/a	n/a	n/a	n/a	n/a	n/a	n/a	n/a
396.7055	0.5167	FIXCROSS	n/a	n/a	n/a	n/a	n/a	n/a	n/a	n/a
397.2222	0.7667	COLOR_NAME	60	Incongruent	czerwony	red	żółty	yellow	hit	n/a
397.9645	n/a	RESPONSE	n/a	n/a	n/a	n/a	n/a	n/a	n/a	red
397.9889	1.0167	ITI	n/a	n/a	n/a	n/a	n/a	n/a	n/a	n/a
399.0056	0.5167	FIXCROSS	n/a	n/a	n/a	n/a	n/a	n/a	n/a	n/a
399.5222	0.6333	COLOR_NAME	61	Neutral	czerwony	red	Neutral	Neutral	hit	n/a
400.1364	n/a	RESPONSE	n/a	n/a	n/a	n/a	n/a	n/a	n/a	red
400.1556	1.0167	ITI	n/a	n/a	n/a	n/a	n/a	n/a	n/a	n/a
401.1723	0.5167	FIXCROSS	n/a	n/a	n/a	n/a	n/a	n/a	n/a	n/a
401.6889	0.55	COLOR_NAME	62	Incongruent	czerwony	red	niebieski	blue	hit	n/a
402.2125	n/a	RESPONSE	n/a	n/a	n/a	n/a	n/a	n/a	n/a	red
402.2389	1.0167	ITI	n/a	n/a	n/a	n/a	n/a	n/a	n/a	n/a
403.2556	0.5167	FIXCROSS	n/a	n/a	n/a	n/a	n/a	n/a	n/a	n/a
403.7723	0.5	COLOR_NAME	63	Incongruent	czerwony	red	zielony	green	hit	n/a
404.2406	n/a	RESPONSE	n/a	n/a	n/a	n/a	n/a	n/a	n/a	red
404.2723	1.0167	ITI	n/a	n/a	n/a	n/a	n/a	n/a	n/a	n/a
405.289	0.5167	FIXCROSS	n/a	n/a	n/a	n/a	n/a	n/a	n/a	n/a
405.8056	0.8	COLOR_NAME	64	Incongruent	zielony	green	żółty	yellow	hit	n/a
406.5882	n/a	RESPONSE	n/a	n/a	n/a	n/a	n/a	n/a	n/a	green
406.6057	1.0167	ITI	n/a	n/a	n/a	n/a	n/a	n/a	n/a	n/a
407.6223	0.5167	FIXCROSS	n/a	n/a	n/a	n/a	n/a	n/a	n/a	n/a
408.139	0.6167	COLOR_NAME	65	Neutral	czerwony	red	Neutral	Neutral	hit	n/a
408.7282	n/a	RESPONSE	n/a	n/a	n/a	n/a	n/a	n/a	n/a	red
408.7557	1.0167	ITI	n/a	n/a	n/a	n/a	n/a	n/a	n/a	n/a
409.7724	0.5167	FIXCROSS	n/a	n/a	n/a	n/a	n/a	n/a	n/a	n/a
410.289	0.7334	COLOR_NAME	66	Neutral	żółty	yellow	Neutral	Neutral	hit	n/a
410.9958	n/a	RESPONSE	n/a	n/a	n/a	n/a	n/a	n/a	n/a	yellow
411.0224	1.0167	ITI	n/a	n/a	n/a	n/a	n/a	n/a	n/a	n/a
412.0391	0.5167	FIXCROSS	n/a	n/a	n/a	n/a	n/a	n/a	n/a	n/a
412.5557	1.0334	COLOR_NAME	67	Neutral	niebieski	blue	Neutral	Neutral	hit	n/a
413.5669	n/a	RESPONSE	n/a	n/a	n/a	n/a	n/a	n/a	n/a	blue
413.5891	1.0167	ITI	n/a	n/a	n/a	n/a	n/a	n/a	n/a	n/a
414.6058	0.5167	FIXCROSS	n/a	n/a	n/a	n/a	n/a	n/a	n/a	n/a
415.1224	0.9833	COLOR_NAME	68	Neutral	zielony	green	Neutral	Neutral	hit	n/a
416.0742	n/a	RESPONSE	n/a	n/a	n/a	n/a	n/a	n/a	n/a	green
416.1058	1.0167	ITI	n/a	n/a	n/a	n/a	n/a	n/a	n/a	n/a
417.1224	0.5167	FIXCROSS	n/a	n/a	n/a	n/a	n/a	n/a	n/a	n/a
417.6391	1.4667	COLOR_NAME	69	Incongruent	żółty	yellow	zielony	green	hit	n/a
419.0765	n/a	RESPONSE	n/a	n/a	n/a	n/a	n/a	n/a	n/a	yellow
419.1058	1.0167	ITI	n/a	n/a	n/a	n/a	n/a	n/a	n/a	n/a
420.1225	0.5167	FIXCROSS	n/a	n/a	n/a	n/a	n/a	n/a	n/a	n/a
420.6392	0.65	COLOR_NAME	70	Incongruent	niebieski	blue	zielony	green	hit	n/a
421.2643	n/a	RESPONSE	n/a	n/a	n/a	n/a	n/a	n/a	n/a	blue
421.2892	1.0167	ITI	n/a	n/a	n/a	n/a	n/a	n/a	n/a	n/a
422.3058	0.5167	FIXCROSS	n/a	n/a	n/a	n/a	n/a	n/a	n/a	n/a
422.8225	0.6333	COLOR_NAME	71	Neutral	czerwony	red	Neutral	Neutral	hit	n/a
423.4362	n/a	RESPONSE	n/a	n/a	n/a	n/a	n/a	n/a	n/a	red
423.4559	1.0167	ITI	n/a	n/a	n/a	n/a	n/a	n/a	n/a	n/a
424.4725	0.5167	FIXCROSS	n/a	n/a	n/a	n/a	n/a	n/a	n/a	n/a
424.9892	0.65	COLOR_NAME	72	Neutral	czerwony	red	Neutral	Neutral	hit	n/a
425.6081	n/a	RESPONSE	n/a	n/a	n/a	n/a	n/a	n/a	n/a	red
425.6392	1.0333	ITI	n/a	n/a	n/a	n/a	n/a	n/a	n/a	n/a
428.3708	n/a	RESPONSE	n/a	n/a	n/a	n/a	n/a	n/a	n/a	n/a
