onset	duration	trial_type	trial_number	stroop_condition	stim_text(PL)	stim_text(eng)	stim_color(PL)	stim_color(eng)	response_type	response_color
0.0	n/a	RESPONSE	n/a	n/a	n/a	n/a	n/a	n/a	n/a	n/a
0.0525	1.0333	ITI	n/a	n/a	n/a	n/a	n/a	n/a	n/a	n/a
1.0859	0.5167	FIXCROSS	n/a	n/a	n/a	n/a	n/a	n/a	n/a	n/a
1.6025	0.9333	T_INK	1	Neutral	xxxxxxxx	xxxxxxxx	żółty	yellow	hit	n/a
2.5073	n/a	RESPONSE	n/a	n/a	n/a	n/a	n/a	n/a	n/a	yellow
2.5359	0.5167	FEEDBACK	n/a	n/a	n/a	n/a	n/a	n/a	n/a	n/a
3.0525	1.0333	ITI	n/a	n/a	n/a	n/a	n/a	n/a	n/a	n/a
4.0859	0.5167	FIXCROSS	n/a	n/a	n/a	n/a	n/a	n/a	n/a	n/a
4.6026	1.2834	T_INK	2	Incongruent	żółty	yellow	zielony	green	hit	n/a
5.861	n/a	RESPONSE	n/a	n/a	n/a	n/a	n/a	n/a	n/a	green
5.8859	0.5167	FEEDBACK	n/a	n/a	n/a	n/a	n/a	n/a	n/a	n/a
6.4026	1.0167	ITI	n/a	n/a	n/a	n/a	n/a	n/a	n/a	n/a
7.4193	0.5167	FIXCROSS	n/a	n/a	n/a	n/a	n/a	n/a	n/a	n/a
7.9359	0.6	T_INK	3	Incongruent	żółty	yellow	niebieski	blue	hit	n/a
8.512	n/a	RESPONSE	n/a	n/a	n/a	n/a	n/a	n/a	n/a	blue
8.536	0.5167	FEEDBACK	n/a	n/a	n/a	n/a	n/a	n/a	n/a	n/a
9.0526	1.0167	ITI	n/a	n/a	n/a	n/a	n/a	n/a	n/a	n/a
10.0693	0.5167	FIXCROSS	n/a	n/a	n/a	n/a	n/a	n/a	n/a	n/a
10.586	0.4667	T_INK	4	Neutral	xxxxxxxxx	xxxxxxxxx	czerwony	red	hit	n/a
11.0192	n/a	RESPONSE	n/a	n/a	n/a	n/a	n/a	n/a	n/a	red
11.0526	0.5167	FEEDBACK	n/a	n/a	n/a	n/a	n/a	n/a	n/a	n/a
11.5693	1.0167	ITI	n/a	n/a	n/a	n/a	n/a	n/a	n/a	n/a
12.586	0.5167	FIXCROSS	n/a	n/a	n/a	n/a	n/a	n/a	n/a	n/a
13.1027	0.9667	T_INK	5	Incongruent	niebieski	blue	zielony	green	hit	n/a
14.0374	n/a	RESPONSE	n/a	n/a	n/a	n/a	n/a	n/a	n/a	green
14.0693	0.5167	FEEDBACK	n/a	n/a	n/a	n/a	n/a	n/a	n/a	n/a
14.586	1.0167	ITI	n/a	n/a	n/a	n/a	n/a	n/a	n/a	n/a
15.6027	0.5167	FIXCROSS	n/a	n/a	n/a	n/a	n/a	n/a	n/a	n/a
16.1194	0.55	T_INK	6	Neutral	xxxxx	xxxxx	zielony	green	hit	n/a
16.6405	n/a	RESPONSE	n/a	n/a	n/a	n/a	n/a	n/a	n/a	green
16.6694	0.5167	FEEDBACK	n/a	n/a	n/a	n/a	n/a	n/a	n/a	n/a
17.186	1.0167	ITI	n/a	n/a	n/a	n/a	n/a	n/a	n/a	n/a
18.2027	0.5167	FIXCROSS	n/a	n/a	n/a	n/a	n/a	n/a	n/a	n/a
18.7194	0.5	T_INK	7	Neutral	xxxxxxxx	xxxxxxxx	zielony	green	hit	n/a
19.1956	n/a	RESPONSE	n/a	n/a	n/a	n/a	n/a	n/a	n/a	green
19.2194	0.5167	FEEDBACK	n/a	n/a	n/a	n/a	n/a	n/a	n/a	n/a
19.7361	1.0167	ITI	n/a	n/a	n/a	n/a	n/a	n/a	n/a	n/a
20.7528	0.5167	FIXCROSS	n/a	n/a	n/a	n/a	n/a	n/a	n/a	n/a
21.2694	0.4167	T_INK	8	Neutral	xxxxxxx	xxxxxxx	niebieski	blue	hit	n/a
21.655	n/a	RESPONSE	n/a	n/a	n/a	n/a	n/a	n/a	n/a	blue
21.6861	0.5167	FEEDBACK	n/a	n/a	n/a	n/a	n/a	n/a	n/a	n/a
22.2028	1.0167	ITI	n/a	n/a	n/a	n/a	n/a	n/a	n/a	n/a
23.2194	0.5167	FIXCROSS	n/a	n/a	n/a	n/a	n/a	n/a	n/a	n/a
23.7361	0.5333	T_INK	9	Neutral	xxxxx	xxxxx	niebieski	blue	hit	n/a
24.2422	n/a	RESPONSE	n/a	n/a	n/a	n/a	n/a	n/a	n/a	blue
24.2695	0.5167	FEEDBACK	n/a	n/a	n/a	n/a	n/a	n/a	n/a	n/a
24.7861	1.0167	ITI	n/a	n/a	n/a	n/a	n/a	n/a	n/a	n/a
25.8028	0.5167	FIXCROSS	n/a	n/a	n/a	n/a	n/a	n/a	n/a	n/a
26.3195	0.4334	T_INK	10	Neutral	xxxxx	xxxxx	czerwony	red	hit	n/a
26.7335	n/a	RESPONSE	n/a	n/a	n/a	n/a	n/a	n/a	n/a	red
26.7528	0.5167	FEEDBACK	n/a	n/a	n/a	n/a	n/a	n/a	n/a	n/a
27.2695	1.0167	ITI	n/a	n/a	n/a	n/a	n/a	n/a	n/a	n/a
28.2862	0.5167	FIXCROSS	n/a	n/a	n/a	n/a	n/a	n/a	n/a	n/a
28.8028	0.5333	T_INK	11	Neutral	xxxxxxx	xxxxxxx	czerwony	red	hit	n/a
29.3046	n/a	RESPONSE	n/a	n/a	n/a	n/a	n/a	n/a	n/a	red
29.3362	0.5167	FEEDBACK	n/a	n/a	n/a	n/a	n/a	n/a	n/a	n/a
29.8528	1.0167	ITI	n/a	n/a	n/a	n/a	n/a	n/a	n/a	n/a
30.8695	0.5167	FIXCROSS	n/a	n/a	n/a	n/a	n/a	n/a	n/a	n/a
31.3862	0.6167	T_INK	12	Incongruent	niebieski	blue	żółty	yellow	hit	n/a
31.9715	n/a	RESPONSE	n/a	n/a	n/a	n/a	n/a	n/a	n/a	yellow
32.0029	0.5167	FEEDBACK	n/a	n/a	n/a	n/a	n/a	n/a	n/a	n/a
32.5195	1.0333	ITI	n/a	n/a	n/a	n/a	n/a	n/a	n/a	n/a
40.659	n/a	RESPONSE	n/a	n/a	n/a	n/a	n/a	n/a	n/a	n/a
40.7196	1.0167	ITI	n/a	n/a	n/a	n/a	n/a	n/a	n/a	n/a
41.7363	0.5167	FIXCROSS	n/a	n/a	n/a	n/a	n/a	n/a	n/a	n/a
42.253	0.8833	INK	1	Neutral	xxxxx	xxxxx	zielony	green	hit	n/a
43.1023	n/a	RESPONSE	n/a	n/a	n/a	n/a	n/a	n/a	n/a	green
43.1363	1.0167	ITI	n/a	n/a	n/a	n/a	n/a	n/a	n/a	n/a
44.153	0.5167	FIXCROSS	n/a	n/a	n/a	n/a	n/a	n/a	n/a	n/a
44.6697	0.75	INK	2	Incongruent	niebieski	blue	czerwony	red	hit	n/a
45.3861	n/a	RESPONSE	n/a	n/a	n/a	n/a	n/a	n/a	n/a	red
45.4197	1.0167	ITI	n/a	n/a	n/a	n/a	n/a	n/a	n/a	n/a
46.4364	0.5167	FIXCROSS	n/a	n/a	n/a	n/a	n/a	n/a	n/a	n/a
46.953	1.4167	INK	3	Incongruent	czerwony	red	niebieski	blue	hit	n/a
48.3404	n/a	RESPONSE	n/a	n/a	n/a	n/a	n/a	n/a	n/a	blue
48.3697	1.0167	ITI	n/a	n/a	n/a	n/a	n/a	n/a	n/a	n/a
49.3864	0.5167	FIXCROSS	n/a	n/a	n/a	n/a	n/a	n/a	n/a	n/a
49.9031	0.55	INK	4	Incongruent	niebieski	blue	żółty	yellow	hit	n/a
50.4324	n/a	RESPONSE	n/a	n/a	n/a	n/a	n/a	n/a	n/a	yellow
50.4531	1.0167	ITI	n/a	n/a	n/a	n/a	n/a	n/a	n/a	n/a
51.4698	0.5167	FIXCROSS	n/a	n/a	n/a	n/a	n/a	n/a	n/a	n/a
51.9864	0.5667	INK	5	Neutral	xxxxxxxxx	xxxxxxxxx	żółty	yellow	hit	n/a
52.5245	n/a	RESPONSE	n/a	n/a	n/a	n/a	n/a	n/a	n/a	yellow
52.5531	1.0167	ITI	n/a	n/a	n/a	n/a	n/a	n/a	n/a	n/a
53.5698	0.5167	FIXCROSS	n/a	n/a	n/a	n/a	n/a	n/a	n/a	n/a
54.0864	0.4333	INK	6	Neutral	xxxxxxx	xxxxxxx	żółty	yellow	hit	n/a
54.4888	n/a	RESPONSE	n/a	n/a	n/a	n/a	n/a	n/a	n/a	yellow
54.5198	1.0167	ITI	n/a	n/a	n/a	n/a	n/a	n/a	n/a	n/a
55.5365	0.5167	FIXCROSS	n/a	n/a	n/a	n/a	n/a	n/a	n/a	n/a
56.0531	0.4333	INK	7	Neutral	xxxxxxxxx	xxxxxxxxx	czerwony	red	hit	n/a
56.4691	n/a	RESPONSE	n/a	n/a	n/a	n/a	n/a	n/a	n/a	red
56.4865	1.0167	ITI	n/a	n/a	n/a	n/a	n/a	n/a	n/a	n/a
57.5032	0.5167	FIXCROSS	n/a	n/a	n/a	n/a	n/a	n/a	n/a	n/a
58.0198	0.6334	INK	8	Neutral	xxxxxxxxx	xxxxxxxxx	zielony	green	hit	n/a
58.625	n/a	RESPONSE	n/a	n/a	n/a	n/a	n/a	n/a	n/a	green
58.6532	1.0167	ITI	n/a	n/a	n/a	n/a	n/a	n/a	n/a	n/a
59.6698	0.5167	FIXCROSS	n/a	n/a	n/a	n/a	n/a	n/a	n/a	n/a
60.1865	0.4833	INK	9	Neutral	xxxxxxx	xxxxxxx	czerwony	red	hit	n/a
60.6371	n/a	RESPONSE	n/a	n/a	n/a	n/a	n/a	n/a	n/a	red
60.6699	1.0167	ITI	n/a	n/a	n/a	n/a	n/a	n/a	n/a	n/a
61.6865	0.5167	FIXCROSS	n/a	n/a	n/a	n/a	n/a	n/a	n/a	n/a
62.2032	0.8833	INK	10	Incongruent	niebieski	blue	zielony	green	hit	n/a
63.0646	n/a	RESPONSE	n/a	n/a	n/a	n/a	n/a	n/a	n/a	green
63.0866	1.0167	ITI	n/a	n/a	n/a	n/a	n/a	n/a	n/a	n/a
64.1032	0.5167	FIXCROSS	n/a	n/a	n/a	n/a	n/a	n/a	n/a	n/a
64.6199	0.9667	INK	11	Incongruent	niebieski	blue	czerwony	red	hit	n/a
65.5558	n/a	RESPONSE	n/a	n/a	n/a	n/a	n/a	n/a	n/a	red
65.5866	1.0167	ITI	n/a	n/a	n/a	n/a	n/a	n/a	n/a	n/a
66.6033	0.5167	FIXCROSS	n/a	n/a	n/a	n/a	n/a	n/a	n/a	n/a
67.1199	0.6333	INK	12	Neutral	xxxxxxxxx	xxxxxxxxx	zielony	green	hit	n/a
67.7277	n/a	RESPONSE	n/a	n/a	n/a	n/a	n/a	n/a	n/a	green
67.7533	1.0167	ITI	n/a	n/a	n/a	n/a	n/a	n/a	n/a	n/a
68.7699	0.5167	FIXCROSS	n/a	n/a	n/a	n/a	n/a	n/a	n/a	n/a
69.2866	0.5667	INK	13	Incongruent	zielony	green	żółty	yellow	hit	n/a
69.8196	n/a	RESPONSE	n/a	n/a	n/a	n/a	n/a	n/a	n/a	yellow
69.8533	1.0167	ITI	n/a	n/a	n/a	n/a	n/a	n/a	n/a	n/a
70.87	0.5167	FIXCROSS	n/a	n/a	n/a	n/a	n/a	n/a	n/a	n/a
71.3866	0.4	INK	14	Neutral	xxxxxxxx	xxxxxxxx	niebieski	blue	hit	n/a
71.768	n/a	RESPONSE	n/a	n/a	n/a	n/a	n/a	n/a	n/a	blue
71.7867	1.0167	ITI	n/a	n/a	n/a	n/a	n/a	n/a	n/a	n/a
72.8033	0.5167	FIXCROSS	n/a	n/a	n/a	n/a	n/a	n/a	n/a	n/a
73.32	0.6833	INK	15	Incongruent	żółty	yellow	zielony	green	hit	n/a
73.9717	n/a	RESPONSE	n/a	n/a	n/a	n/a	n/a	n/a	n/a	green
74.0033	1.0167	ITI	n/a	n/a	n/a	n/a	n/a	n/a	n/a	n/a
75.02	0.5167	FIXCROSS	n/a	n/a	n/a	n/a	n/a	n/a	n/a	n/a
75.5367	0.5333	INK	16	Neutral	xxxxx	xxxxx	czerwony	red	hit	n/a
76.0478	n/a	RESPONSE	n/a	n/a	n/a	n/a	n/a	n/a	n/a	red
76.07	1.0167	ITI	n/a	n/a	n/a	n/a	n/a	n/a	n/a	n/a
77.0867	0.5167	FIXCROSS	n/a	n/a	n/a	n/a	n/a	n/a	n/a	n/a
77.6034	0.6167	INK	17	Incongruent	niebieski	blue	żółty	yellow	hit	n/a
78.1877	n/a	RESPONSE	n/a	n/a	n/a	n/a	n/a	n/a	n/a	yellow
78.22	1.0167	ITI	n/a	n/a	n/a	n/a	n/a	n/a	n/a	n/a
79.2367	0.5167	FIXCROSS	n/a	n/a	n/a	n/a	n/a	n/a	n/a	n/a
79.7534	0.7333	INK	18	Neutral	xxxxxxxxx	xxxxxxxxx	zielony	green	hit	n/a
80.4554	n/a	RESPONSE	n/a	n/a	n/a	n/a	n/a	n/a	n/a	green
80.4867	1.0167	ITI	n/a	n/a	n/a	n/a	n/a	n/a	n/a	n/a
81.5034	0.5167	FIXCROSS	n/a	n/a	n/a	n/a	n/a	n/a	n/a	n/a
82.0201	0.7167	INK	19	Neutral	xxxxxxxx	xxxxxxxx	żółty	yellow	hit	n/a
82.7072	n/a	RESPONSE	n/a	n/a	n/a	n/a	n/a	n/a	n/a	yellow
82.7368	1.0167	ITI	n/a	n/a	n/a	n/a	n/a	n/a	n/a	n/a
83.7534	0.5167	FIXCROSS	n/a	n/a	n/a	n/a	n/a	n/a	n/a	n/a
84.2701	0.3833	INK	20	Neutral	xxxxxxxx	xxxxxxxx	niebieski	blue	hit	n/a
84.6235	n/a	RESPONSE	n/a	n/a	n/a	n/a	n/a	n/a	n/a	blue
84.6535	1.0167	ITI	n/a	n/a	n/a	n/a	n/a	n/a	n/a	n/a
85.6701	0.5167	FIXCROSS	n/a	n/a	n/a	n/a	n/a	n/a	n/a	n/a
86.1868	0.5833	INK	21	Neutral	xxxxxxx	xxxxxxx	żółty	yellow	hit	n/a
86.7475	n/a	RESPONSE	n/a	n/a	n/a	n/a	n/a	n/a	n/a	yellow
86.7701	1.0167	ITI	n/a	n/a	n/a	n/a	n/a	n/a	n/a	n/a
87.7868	0.5167	FIXCROSS	n/a	n/a	n/a	n/a	n/a	n/a	n/a	n/a
88.3035	0.5667	INK	22	Incongruent	żółty	yellow	niebieski	blue	hit	n/a
88.8395	n/a	RESPONSE	n/a	n/a	n/a	n/a	n/a	n/a	n/a	blue
88.8702	1.0167	ITI	n/a	n/a	n/a	n/a	n/a	n/a	n/a	n/a
89.8869	0.5167	FIXCROSS	n/a	n/a	n/a	n/a	n/a	n/a	n/a	n/a
90.4035	0.5333	INK	23	Incongruent	żółty	yellow	zielony	green	hit	n/a
90.9156	n/a	RESPONSE	n/a	n/a	n/a	n/a	n/a	n/a	n/a	green
90.9369	1.0167	ITI	n/a	n/a	n/a	n/a	n/a	n/a	n/a	n/a
91.9535	0.5167	FIXCROSS	n/a	n/a	n/a	n/a	n/a	n/a	n/a	n/a
92.4702	0.45	INK	24	Incongruent	zielony	green	żółty	yellow	hit	n/a
92.8959	n/a	RESPONSE	n/a	n/a	n/a	n/a	n/a	n/a	n/a	yellow
92.9202	1.0167	ITI	n/a	n/a	n/a	n/a	n/a	n/a	n/a	n/a
93.9369	0.5167	FIXCROSS	n/a	n/a	n/a	n/a	n/a	n/a	n/a	n/a
94.4536	0.7167	INK	25	Neutral	xxxxxxxx	xxxxxxxx	zielony	green	hit	n/a
95.1476	n/a	RESPONSE	n/a	n/a	n/a	n/a	n/a	n/a	n/a	green
95.1702	1.0167	ITI	n/a	n/a	n/a	n/a	n/a	n/a	n/a	n/a
96.1869	0.5167	FIXCROSS	n/a	n/a	n/a	n/a	n/a	n/a	n/a	n/a
96.7036	0.6167	INK	26	Neutral	xxxxxxxx	xxxxxxxx	zielony	green	hit	n/a
97.2876	n/a	RESPONSE	n/a	n/a	n/a	n/a	n/a	n/a	n/a	green
97.3203	1.0167	ITI	n/a	n/a	n/a	n/a	n/a	n/a	n/a	n/a
98.3369	0.5167	FIXCROSS	n/a	n/a	n/a	n/a	n/a	n/a	n/a	n/a
98.8536	0.75	INK	27	Incongruent	żółty	yellow	niebieski	blue	hit	n/a
99.5712	n/a	RESPONSE	n/a	n/a	n/a	n/a	n/a	n/a	n/a	blue
99.6036	1.0167	ITI	n/a	n/a	n/a	n/a	n/a	n/a	n/a	n/a
100.6203	0.5167	FIXCROSS	n/a	n/a	n/a	n/a	n/a	n/a	n/a	n/a
101.137	0.3667	INK	28	Incongruent	zielony	green	czerwony	red	hit	n/a
101.4715	n/a	RESPONSE	n/a	n/a	n/a	n/a	n/a	n/a	n/a	red
101.5036	1.0167	ITI	n/a	n/a	n/a	n/a	n/a	n/a	n/a	n/a
102.5203	0.5167	FIXCROSS	n/a	n/a	n/a	n/a	n/a	n/a	n/a	n/a
103.037	0.6333	INK	29	Neutral	xxxxx	xxxxx	zielony	green	hit	n/a
103.6434	n/a	RESPONSE	n/a	n/a	n/a	n/a	n/a	n/a	n/a	green
103.6703	1.0167	ITI	n/a	n/a	n/a	n/a	n/a	n/a	n/a	n/a
104.687	0.5167	FIXCROSS	n/a	n/a	n/a	n/a	n/a	n/a	n/a	n/a
105.2037	0.9667	INK	30	Neutral	xxxxxxx	xxxxxxx	niebieski	blue	hit	n/a
106.1508	n/a	RESPONSE	n/a	n/a	n/a	n/a	n/a	n/a	n/a	blue
106.1704	1.0167	ITI	n/a	n/a	n/a	n/a	n/a	n/a	n/a	n/a
107.187	0.5167	FIXCROSS	n/a	n/a	n/a	n/a	n/a	n/a	n/a	n/a
107.7037	0.6833	INK	31	Incongruent	czerwony	red	zielony	green	hit	n/a
108.3545	n/a	RESPONSE	n/a	n/a	n/a	n/a	n/a	n/a	n/a	green
108.387	1.0167	ITI	n/a	n/a	n/a	n/a	n/a	n/a	n/a	n/a
109.4037	0.5167	FIXCROSS	n/a	n/a	n/a	n/a	n/a	n/a	n/a	n/a
109.9204	0.4	INK	32	Neutral	xxxxxxx	xxxxxxx	czerwony	red	hit	n/a
110.2868	n/a	RESPONSE	n/a	n/a	n/a	n/a	n/a	n/a	n/a	red
110.3204	1.0167	ITI	n/a	n/a	n/a	n/a	n/a	n/a	n/a	n/a
111.3371	0.5167	FIXCROSS	n/a	n/a	n/a	n/a	n/a	n/a	n/a	n/a
111.8538	0.55	INK	33	Incongruent	żółty	yellow	czerwony	red	hit	n/a
112.3788	n/a	RESPONSE	n/a	n/a	n/a	n/a	n/a	n/a	n/a	red
112.4038	1.0167	ITI	n/a	n/a	n/a	n/a	n/a	n/a	n/a	n/a
113.4204	0.5167	FIXCROSS	n/a	n/a	n/a	n/a	n/a	n/a	n/a	n/a
113.9371	1.1	INK	34	Incongruent	zielony	green	niebieski	blue	hit	n/a
115.0138	n/a	RESPONSE	n/a	n/a	n/a	n/a	n/a	n/a	n/a	blue
115.0371	1.0167	ITI	n/a	n/a	n/a	n/a	n/a	n/a	n/a	n/a
116.0538	0.5167	FIXCROSS	n/a	n/a	n/a	n/a	n/a	n/a	n/a	n/a
116.5705	0.9	INK	35	Neutral	xxxxx	xxxxx	niebieski	blue	hit	n/a
117.4413	n/a	RESPONSE	n/a	n/a	n/a	n/a	n/a	n/a	n/a	blue
117.4705	1.0167	ITI	n/a	n/a	n/a	n/a	n/a	n/a	n/a	n/a
118.4872	0.5167	FIXCROSS	n/a	n/a	n/a	n/a	n/a	n/a	n/a	n/a
119.0038	0.65	INK	36	Incongruent	czerwony	red	zielony	green	hit	n/a
119.629	n/a	RESPONSE	n/a	n/a	n/a	n/a	n/a	n/a	n/a	green
119.6538	1.0167	ITI	n/a	n/a	n/a	n/a	n/a	n/a	n/a	n/a
120.6705	0.5167	FIXCROSS	n/a	n/a	n/a	n/a	n/a	n/a	n/a	n/a
121.1872	0.5833	INK	37	Neutral	xxxxxxxx	xxxxxxxx	żółty	yellow	hit	n/a
121.7371	n/a	RESPONSE	n/a	n/a	n/a	n/a	n/a	n/a	n/a	yellow
121.7705	1.0167	ITI	n/a	n/a	n/a	n/a	n/a	n/a	n/a	n/a
122.7872	0.5167	FIXCROSS	n/a	n/a	n/a	n/a	n/a	n/a	n/a	n/a
123.3039	0.5167	INK	38	Incongruent	zielony	green	czerwony	red	hit	n/a
123.7971	n/a	RESPONSE	n/a	n/a	n/a	n/a	n/a	n/a	n/a	red
123.8206	1.0167	ITI	n/a	n/a	n/a	n/a	n/a	n/a	n/a	n/a
124.8372	0.5167	FIXCROSS	n/a	n/a	n/a	n/a	n/a	n/a	n/a	n/a
125.3539	0.7167	INK	39	Incongruent	czerwony	red	żółty	yellow	hit	n/a
126.0489	n/a	RESPONSE	n/a	n/a	n/a	n/a	n/a	n/a	n/a	yellow
126.0706	1.0167	ITI	n/a	n/a	n/a	n/a	n/a	n/a	n/a	n/a
127.0873	0.5167	FIXCROSS	n/a	n/a	n/a	n/a	n/a	n/a	n/a	n/a
127.6039	0.6333	INK	40	Incongruent	czerwony	red	zielony	green	hit	n/a
128.2048	n/a	RESPONSE	n/a	n/a	n/a	n/a	n/a	n/a	n/a	green
128.2373	1.0167	ITI	n/a	n/a	n/a	n/a	n/a	n/a	n/a	n/a
129.2539	0.5167	FIXCROSS	n/a	n/a	n/a	n/a	n/a	n/a	n/a	n/a
129.7706	0.5167	INK	41	Neutral	xxxxxxxxx	xxxxxxxxx	czerwony	red	hit	n/a
130.2648	n/a	RESPONSE	n/a	n/a	n/a	n/a	n/a	n/a	n/a	red
130.2873	1.0167	ITI	n/a	n/a	n/a	n/a	n/a	n/a	n/a	n/a
131.304	0.5167	FIXCROSS	n/a	n/a	n/a	n/a	n/a	n/a	n/a	n/a
131.8206	0.4833	INK	42	Neutral	xxxxx	xxxxx	czerwony	red	hit	n/a
132.2771	n/a	RESPONSE	n/a	n/a	n/a	n/a	n/a	n/a	n/a	red
132.304	1.0167	ITI	n/a	n/a	n/a	n/a	n/a	n/a	n/a	n/a
133.3207	0.5167	FIXCROSS	n/a	n/a	n/a	n/a	n/a	n/a	n/a	n/a
133.8373	0.6667	INK	43	Neutral	xxxxx	xxxxx	zielony	green	hit	n/a
134.4809	n/a	RESPONSE	n/a	n/a	n/a	n/a	n/a	n/a	n/a	green
134.504	1.0167	ITI	n/a	n/a	n/a	n/a	n/a	n/a	n/a	n/a
135.5207	0.5167	FIXCROSS	n/a	n/a	n/a	n/a	n/a	n/a	n/a	n/a
136.0374	0.5	INK	44	Incongruent	czerwony	red	niebieski	blue	hit	n/a
136.509	n/a	RESPONSE	n/a	n/a	n/a	n/a	n/a	n/a	n/a	blue
136.5374	1.0167	ITI	n/a	n/a	n/a	n/a	n/a	n/a	n/a	n/a
137.554	0.5167	FIXCROSS	n/a	n/a	n/a	n/a	n/a	n/a	n/a	n/a
138.0707	0.7667	INK	45	Incongruent	zielony	green	żółty	yellow	hit	n/a
138.8086	n/a	RESPONSE	n/a	n/a	n/a	n/a	n/a	n/a	n/a	yellow
138.8374	1.0167	ITI	n/a	n/a	n/a	n/a	n/a	n/a	n/a	n/a
139.8541	0.5167	FIXCROSS	n/a	n/a	n/a	n/a	n/a	n/a	n/a	n/a
140.3707	0.7167	INK	46	Incongruent	niebieski	blue	zielony	green	hit	n/a
141.0605	n/a	RESPONSE	n/a	n/a	n/a	n/a	n/a	n/a	n/a	green
141.0874	1.0167	ITI	n/a	n/a	n/a	n/a	n/a	n/a	n/a	n/a
142.1041	0.5167	FIXCROSS	n/a	n/a	n/a	n/a	n/a	n/a	n/a	n/a
142.6208	1.0833	INK	47	Neutral	xxxxxxxx	xxxxxxxx	niebieski	blue	hit	n/a
143.6795	n/a	RESPONSE	n/a	n/a	n/a	n/a	n/a	n/a	n/a	blue
143.7041	1.0167	ITI	n/a	n/a	n/a	n/a	n/a	n/a	n/a	n/a
144.7208	0.5167	FIXCROSS	n/a	n/a	n/a	n/a	n/a	n/a	n/a	n/a
145.2375	0.4833	INK	48	Neutral	xxxxxxx	xxxxxxx	niebieski	blue	hit	n/a
145.6916	n/a	RESPONSE	n/a	n/a	n/a	n/a	n/a	n/a	n/a	blue
145.7208	1.0167	ITI	n/a	n/a	n/a	n/a	n/a	n/a	n/a	n/a
146.7375	0.5167	FIXCROSS	n/a	n/a	n/a	n/a	n/a	n/a	n/a	n/a
147.2541	1.3	INK	49	Neutral	xxxxxxxx	xxxxxxxx	żółty	yellow	hit	n/a
148.5342	n/a	RESPONSE	n/a	n/a	n/a	n/a	n/a	n/a	n/a	yellow
148.5542	1.0167	ITI	n/a	n/a	n/a	n/a	n/a	n/a	n/a	n/a
149.5708	0.5167	FIXCROSS	n/a	n/a	n/a	n/a	n/a	n/a	n/a	n/a
150.0875	0.75	INK	50	Incongruent	niebieski	blue	żółty	yellow	hit	n/a
150.8179	n/a	RESPONSE	n/a	n/a	n/a	n/a	n/a	n/a	n/a	yellow
150.8375	1.0167	ITI	n/a	n/a	n/a	n/a	n/a	n/a	n/a	n/a
151.8542	0.5167	FIXCROSS	n/a	n/a	n/a	n/a	n/a	n/a	n/a	n/a
152.3709	0.5	INK	51	Incongruent	czerwony	red	żółty	yellow	hit	n/a
152.846	n/a	RESPONSE	n/a	n/a	n/a	n/a	n/a	n/a	n/a	yellow
152.8709	1.0167	ITI	n/a	n/a	n/a	n/a	n/a	n/a	n/a	n/a
153.8875	0.5167	FIXCROSS	n/a	n/a	n/a	n/a	n/a	n/a	n/a	n/a
154.4042	0.6333	INK	52	Incongruent	niebieski	blue	zielony	green	hit	n/a
155.0179	n/a	RESPONSE	n/a	n/a	n/a	n/a	n/a	n/a	n/a	green
155.0376	1.0167	ITI	n/a	n/a	n/a	n/a	n/a	n/a	n/a	n/a
156.0542	0.5167	FIXCROSS	n/a	n/a	n/a	n/a	n/a	n/a	n/a	n/a
156.5709	0.7	INK	53	Incongruent	żółty	yellow	czerwony	red	hit	n/a
157.2536	n/a	RESPONSE	n/a	n/a	n/a	n/a	n/a	n/a	n/a	red
157.2709	1.0167	ITI	n/a	n/a	n/a	n/a	n/a	n/a	n/a	n/a
158.2876	0.5167	FIXCROSS	n/a	n/a	n/a	n/a	n/a	n/a	n/a	n/a
158.8043	0.5333	INK	54	Incongruent	żółty	yellow	niebieski	blue	hit	n/a
159.3137	n/a	RESPONSE	n/a	n/a	n/a	n/a	n/a	n/a	n/a	blue
159.3376	1.0167	ITI	n/a	n/a	n/a	n/a	n/a	n/a	n/a	n/a
160.3543	0.5167	FIXCROSS	n/a	n/a	n/a	n/a	n/a	n/a	n/a	n/a
160.871	0.45	INK	55	Incongruent	niebieski	blue	czerwony	red	hit	n/a
161.294	n/a	RESPONSE	n/a	n/a	n/a	n/a	n/a	n/a	n/a	red
161.321	1.0167	ITI	n/a	n/a	n/a	n/a	n/a	n/a	n/a	n/a
162.3376	0.5167	FIXCROSS	n/a	n/a	n/a	n/a	n/a	n/a	n/a	n/a
162.8543	0.4333	INK	56	Neutral	xxxxxxx	xxxxxxx	czerwony	red	hit	n/a
163.2583	n/a	RESPONSE	n/a	n/a	n/a	n/a	n/a	n/a	n/a	red
163.2877	1.0167	ITI	n/a	n/a	n/a	n/a	n/a	n/a	n/a	n/a
164.3043	0.5167	FIXCROSS	n/a	n/a	n/a	n/a	n/a	n/a	n/a	n/a
164.821	0.4	INK	57	Incongruent	zielony	green	czerwony	red	hit	n/a
165.1906	n/a	RESPONSE	n/a	n/a	n/a	n/a	n/a	n/a	n/a	red
165.221	1.0167	ITI	n/a	n/a	n/a	n/a	n/a	n/a	n/a	n/a
166.2377	0.5167	FIXCROSS	n/a	n/a	n/a	n/a	n/a	n/a	n/a	n/a
166.7544	0.45	INK	58	Neutral	xxxxxxxxx	xxxxxxxxx	żółty	yellow	hit	n/a
167.1708	n/a	RESPONSE	n/a	n/a	n/a	n/a	n/a	n/a	n/a	yellow
167.2044	1.0167	ITI	n/a	n/a	n/a	n/a	n/a	n/a	n/a	n/a
168.221	0.5167	FIXCROSS	n/a	n/a	n/a	n/a	n/a	n/a	n/a	n/a
168.7377	0.45	INK	59	Neutral	xxxxxxxx	xxxxxxxx	zielony	green	hit	n/a
169.167	n/a	RESPONSE	n/a	n/a	n/a	n/a	n/a	n/a	n/a	green
169.1877	1.0167	ITI	n/a	n/a	n/a	n/a	n/a	n/a	n/a	n/a
170.2044	0.5167	FIXCROSS	n/a	n/a	n/a	n/a	n/a	n/a	n/a	n/a
170.7211	0.4167	INK	60	Neutral	xxxxxxx	xxxxxxx	niebieski	blue	hit	n/a
171.1153	n/a	RESPONSE	n/a	n/a	n/a	n/a	n/a	n/a	n/a	blue
171.1377	1.0167	ITI	n/a	n/a	n/a	n/a	n/a	n/a	n/a	n/a
172.1544	0.5167	FIXCROSS	n/a	n/a	n/a	n/a	n/a	n/a	n/a	n/a
172.6711	0.3667	INK	61	Neutral	xxxxx	xxxxx	niebieski	blue	hit	n/a
173.0156	n/a	RESPONSE	n/a	n/a	n/a	n/a	n/a	n/a	n/a	blue
173.0378	1.0167	ITI	n/a	n/a	n/a	n/a	n/a	n/a	n/a	n/a
174.0544	0.5167	FIXCROSS	n/a	n/a	n/a	n/a	n/a	n/a	n/a	n/a
174.5711	0.5667	INK	62	Incongruent	żółty	yellow	czerwony	red	hit	n/a
175.1077	n/a	RESPONSE	n/a	n/a	n/a	n/a	n/a	n/a	n/a	red
175.1378	1.0167	ITI	n/a	n/a	n/a	n/a	n/a	n/a	n/a	n/a
176.1545	0.5167	FIXCROSS	n/a	n/a	n/a	n/a	n/a	n/a	n/a	n/a
176.6711	0.4	INK	63	Incongruent	czerwony	red	niebieski	blue	hit	n/a
177.0401	n/a	RESPONSE	n/a	n/a	n/a	n/a	n/a	n/a	n/a	blue
177.0711	1.0167	ITI	n/a	n/a	n/a	n/a	n/a	n/a	n/a	n/a
178.0878	0.5167	FIXCROSS	n/a	n/a	n/a	n/a	n/a	n/a	n/a	n/a
178.6045	0.4167	INK	64	Neutral	xxxxxxxxx	xxxxxxxxx	czerwony	red	hit	n/a
178.9883	n/a	RESPONSE	n/a	n/a	n/a	n/a	n/a	n/a	n/a	red
179.0212	1.0167	ITI	n/a	n/a	n/a	n/a	n/a	n/a	n/a	n/a
180.0378	0.5167	FIXCROSS	n/a	n/a	n/a	n/a	n/a	n/a	n/a	n/a
180.5545	0.5667	INK	65	Neutral	xxxxxxx	xxxxxxx	żółty	yellow	hit	n/a
181.0963	n/a	RESPONSE	n/a	n/a	n/a	n/a	n/a	n/a	n/a	yellow
181.1212	1.0167	ITI	n/a	n/a	n/a	n/a	n/a	n/a	n/a	n/a
182.1379	0.5167	FIXCROSS	n/a	n/a	n/a	n/a	n/a	n/a	n/a	n/a
182.6545	0.5167	INK	66	Neutral	xxxxxxxxx	xxxxxxxxx	żółty	yellow	hit	n/a
183.1404	n/a	RESPONSE	n/a	n/a	n/a	n/a	n/a	n/a	n/a	yellow
183.1712	1.0167	ITI	n/a	n/a	n/a	n/a	n/a	n/a	n/a	n/a
184.1879	0.5167	FIXCROSS	n/a	n/a	n/a	n/a	n/a	n/a	n/a	n/a
184.7045	1.1167	INK	67	Incongruent	czerwony	red	żółty	yellow	hit	n/a
185.7915	n/a	RESPONSE	n/a	n/a	n/a	n/a	n/a	n/a	n/a	yellow
185.8212	1.0167	ITI	n/a	n/a	n/a	n/a	n/a	n/a	n/a	n/a
186.8379	0.5167	FIXCROSS	n/a	n/a	n/a	n/a	n/a	n/a	n/a	n/a
187.3546	0.7667	INK	68	Incongruent	zielony	green	niebieski	blue	hit	n/a
188.0912	n/a	RESPONSE	n/a	n/a	n/a	n/a	n/a	n/a	n/a	blue
188.1213	1.0167	ITI	n/a	n/a	n/a	n/a	n/a	n/a	n/a	n/a
189.1379	0.5167	FIXCROSS	n/a	n/a	n/a	n/a	n/a	n/a	n/a	n/a
189.6546	0.4333	INK	69	Neutral	xxxxx	xxxxx	niebieski	blue	hit	n/a
190.0554	n/a	RESPONSE	n/a	n/a	n/a	n/a	n/a	n/a	n/a	blue
190.0879	1.0167	ITI	n/a	n/a	n/a	n/a	n/a	n/a	n/a	n/a
191.1046	0.5167	FIXCROSS	n/a	n/a	n/a	n/a	n/a	n/a	n/a	n/a
191.6213	0.4	INK	70	Incongruent	zielony	green	niebieski	blue	hit	n/a
192.0036	n/a	RESPONSE	n/a	n/a	n/a	n/a	n/a	n/a	n/a	blue
192.0213	1.0167	ITI	n/a	n/a	n/a	n/a	n/a	n/a	n/a	n/a
193.038	0.5167	FIXCROSS	n/a	n/a	n/a	n/a	n/a	n/a	n/a	n/a
193.5546	0.35	INK	71	Neutral	xxxxx	xxxxx	czerwony	red	hit	n/a
193.8721	n/a	RESPONSE	n/a	n/a	n/a	n/a	n/a	n/a	n/a	red
193.9046	1.0167	ITI	n/a	n/a	n/a	n/a	n/a	n/a	n/a	n/a
194.9213	0.5167	FIXCROSS	n/a	n/a	n/a	n/a	n/a	n/a	n/a	n/a
195.438	0.6667	INK	72	Incongruent	żółty	yellow	zielony	green	hit	n/a
196.076	n/a	RESPONSE	n/a	n/a	n/a	n/a	n/a	n/a	n/a	green
196.1047	1.0833	ITI	n/a	n/a	n/a	n/a	n/a	n/a	n/a	n/a
207.4464	n/a	RESPONSE	n/a	n/a	n/a	n/a	n/a	n/a	n/a	n/a
207.5048	1.0167	ITI	n/a	n/a	n/a	n/a	n/a	n/a	n/a	n/a
208.5215	0.5167	FIXCROSS	n/a	n/a	n/a	n/a	n/a	n/a	n/a	n/a
209.0381	1.15	T_COLOR_NAME	1	Neutral	zielony	green	Neutral	Neutral	hit	n/a
210.1612	n/a	RESPONSE	n/a	n/a	n/a	n/a	n/a	n/a	n/a	green
210.1882	0.5167	FEEDBACK	n/a	n/a	n/a	n/a	n/a	n/a	n/a	n/a
210.7048	1.0167	ITI	n/a	n/a	n/a	n/a	n/a	n/a	n/a	n/a
211.7215	0.5167	FIXCROSS	n/a	n/a	n/a	n/a	n/a	n/a	n/a	n/a
212.2382	0.5	T_COLOR_NAME	2	Neutral	niebieski	blue	Neutral	Neutral	hit	n/a
212.7163	n/a	RESPONSE	n/a	n/a	n/a	n/a	n/a	n/a	n/a	blue
212.7382	0.5167	FEEDBACK	n/a	n/a	n/a	n/a	n/a	n/a	n/a	n/a
213.2549	1.0167	ITI	n/a	n/a	n/a	n/a	n/a	n/a	n/a	n/a
214.2715	0.5167	FIXCROSS	n/a	n/a	n/a	n/a	n/a	n/a	n/a	n/a
214.7882	1.0167	T_COLOR_NAME	3	Incongruent	żółty	yellow	zielony	green	hit	n/a
215.7826	n/a	RESPONSE	n/a	n/a	n/a	n/a	n/a	n/a	n/a	yellow
215.8049	0.5167	FEEDBACK	n/a	n/a	n/a	n/a	n/a	n/a	n/a	n/a
216.3216	1.0167	ITI	n/a	n/a	n/a	n/a	n/a	n/a	n/a	n/a
217.3382	0.5167	FIXCROSS	n/a	n/a	n/a	n/a	n/a	n/a	n/a	n/a
217.8549	0.6334	T_COLOR_NAME	4	Neutral	żółty	yellow	Neutral	Neutral	hit	n/a
218.4655	n/a	RESPONSE	n/a	n/a	n/a	n/a	n/a	n/a	n/a	yellow
218.4883	0.5167	FEEDBACK	n/a	n/a	n/a	n/a	n/a	n/a	n/a	n/a
219.0049	1.0167	ITI	n/a	n/a	n/a	n/a	n/a	n/a	n/a	n/a
220.0216	0.5167	FIXCROSS	n/a	n/a	n/a	n/a	n/a	n/a	n/a	n/a
220.5383	0.7	T_COLOR_NAME	5	Neutral	czerwony	red	Neutral	Neutral	hit	n/a
221.2123	n/a	RESPONSE	n/a	n/a	n/a	n/a	n/a	n/a	n/a	red
221.2383	0.5167	FEEDBACK	n/a	n/a	n/a	n/a	n/a	n/a	n/a	n/a
221.755	1.0167	ITI	n/a	n/a	n/a	n/a	n/a	n/a	n/a	n/a
222.7716	0.5167	FIXCROSS	n/a	n/a	n/a	n/a	n/a	n/a	n/a	n/a
223.2883	0.8333	T_COLOR_NAME	6	Neutral	zielony	green	Neutral	Neutral	hit	n/a
224.0869	n/a	RESPONSE	n/a	n/a	n/a	n/a	n/a	n/a	n/a	green
224.1216	0.5167	FEEDBACK	n/a	n/a	n/a	n/a	n/a	n/a	n/a	n/a
224.6383	1.0167	ITI	n/a	n/a	n/a	n/a	n/a	n/a	n/a	n/a
225.655	0.5167	FIXCROSS	n/a	n/a	n/a	n/a	n/a	n/a	n/a	n/a
226.1717	0.85	T_COLOR_NAME	7	Incongruent	żółty	yellow	niebieski	blue	hit	n/a
226.9934	n/a	RESPONSE	n/a	n/a	n/a	n/a	n/a	n/a	n/a	yellow
227.0217	0.5167	FEEDBACK	n/a	n/a	n/a	n/a	n/a	n/a	n/a	n/a
227.5384	1.0167	ITI	n/a	n/a	n/a	n/a	n/a	n/a	n/a	n/a
228.555	0.5167	FIXCROSS	n/a	n/a	n/a	n/a	n/a	n/a	n/a	n/a
229.0717	0.8	T_COLOR_NAME	8	Incongruent	niebieski	blue	żółty	yellow	hit	n/a
229.8518	n/a	RESPONSE	n/a	n/a	n/a	n/a	n/a	n/a	n/a	blue
229.8717	0.5167	FEEDBACK	n/a	n/a	n/a	n/a	n/a	n/a	n/a	n/a
230.3884	1.0167	ITI	n/a	n/a	n/a	n/a	n/a	n/a	n/a	n/a
231.4051	0.5167	FIXCROSS	n/a	n/a	n/a	n/a	n/a	n/a	n/a	n/a
231.9217	0.9167	T_COLOR_NAME	9	Neutral	żółty	yellow	Neutral	Neutral	hit	n/a
232.8063	n/a	RESPONSE	n/a	n/a	n/a	n/a	n/a	n/a	n/a	yellow
232.8384	0.5167	FEEDBACK	n/a	n/a	n/a	n/a	n/a	n/a	n/a	n/a
233.3551	1.0167	ITI	n/a	n/a	n/a	n/a	n/a	n/a	n/a	n/a
234.3718	0.5167	FIXCROSS	n/a	n/a	n/a	n/a	n/a	n/a	n/a	n/a
234.8884	0.9834	T_COLOR_NAME	10	Incongruent	niebieski	blue	zielony	green	hit	n/a
235.8406	n/a	RESPONSE	n/a	n/a	n/a	n/a	n/a	n/a	n/a	blue
235.8718	0.5167	FEEDBACK	n/a	n/a	n/a	n/a	n/a	n/a	n/a	n/a
236.3885	1.0167	ITI	n/a	n/a	n/a	n/a	n/a	n/a	n/a	n/a
237.4051	0.5167	FIXCROSS	n/a	n/a	n/a	n/a	n/a	n/a	n/a	n/a
237.9218	0.6667	T_COLOR_NAME	11	Neutral	czerwony	red	Neutral	Neutral	hit	n/a
238.5554	n/a	RESPONSE	n/a	n/a	n/a	n/a	n/a	n/a	n/a	red
238.5885	0.5167	FEEDBACK	n/a	n/a	n/a	n/a	n/a	n/a	n/a	n/a
239.1051	1.0167	ITI	n/a	n/a	n/a	n/a	n/a	n/a	n/a	n/a
240.1218	0.5167	FIXCROSS	n/a	n/a	n/a	n/a	n/a	n/a	n/a	n/a
240.6385	0.65	T_COLOR_NAME	12	Neutral	żółty	yellow	Neutral	Neutral	hit	n/a
241.2543	n/a	RESPONSE	n/a	n/a	n/a	n/a	n/a	n/a	n/a	yellow
241.2885	0.5167	FEEDBACK	n/a	n/a	n/a	n/a	n/a	n/a	n/a	n/a
241.8052	1.0333	ITI	n/a	n/a	n/a	n/a	n/a	n/a	n/a	n/a
247.1151	n/a	RESPONSE	n/a	n/a	n/a	n/a	n/a	n/a	n/a	n/a
247.1719	1.0167	ITI	n/a	n/a	n/a	n/a	n/a	n/a	n/a	n/a
248.1886	0.5167	FIXCROSS	n/a	n/a	n/a	n/a	n/a	n/a	n/a	n/a
248.7053	1.65	COLOR_NAME	1	Incongruent	czerwony	red	zielony	green	hit	n/a
250.3249	n/a	RESPONSE	n/a	n/a	n/a	n/a	n/a	n/a	n/a	red
250.3553	1.0167	ITI	n/a	n/a	n/a	n/a	n/a	n/a	n/a	n/a
251.3719	0.5167	FIXCROSS	n/a	n/a	n/a	n/a	n/a	n/a	n/a	n/a
251.8886	1.6833	COLOR_NAME	2	Incongruent	zielony	green	żółty	yellow	hit	n/a
253.5509	n/a	RESPONSE	n/a	n/a	n/a	n/a	n/a	n/a	n/a	green
253.572	1.0167	ITI	n/a	n/a	n/a	n/a	n/a	n/a	n/a	n/a
254.5886	0.5167	FIXCROSS	n/a	n/a	n/a	n/a	n/a	n/a	n/a	n/a
255.1053	0.4833	COLOR_NAME	3	Incongruent	czerwony	red	zielony	green	hit	n/a
255.563	n/a	RESPONSE	n/a	n/a	n/a	n/a	n/a	n/a	n/a	red
255.5887	1.0167	ITI	n/a	n/a	n/a	n/a	n/a	n/a	n/a	n/a
256.6053	0.5167	FIXCROSS	n/a	n/a	n/a	n/a	n/a	n/a	n/a	n/a
257.122	0.55	COLOR_NAME	4	Incongruent	zielony	green	czerwony	red	hit	n/a
257.6391	n/a	RESPONSE	n/a	n/a	n/a	n/a	n/a	n/a	n/a	green
257.672	1.0167	ITI	n/a	n/a	n/a	n/a	n/a	n/a	n/a	n/a
258.6887	0.5167	FIXCROSS	n/a	n/a	n/a	n/a	n/a	n/a	n/a	n/a
259.2054	0.55	COLOR_NAME	5	Neutral	żółty	yellow	Neutral	Neutral	hit	n/a
259.7311	n/a	RESPONSE	n/a	n/a	n/a	n/a	n/a	n/a	n/a	yellow
259.7554	1.0167	ITI	n/a	n/a	n/a	n/a	n/a	n/a	n/a	n/a
260.772	0.5167	FIXCROSS	n/a	n/a	n/a	n/a	n/a	n/a	n/a	n/a
261.2887	0.65	COLOR_NAME	6	Incongruent	żółty	yellow	czerwony	red	hit	n/a
261.919	n/a	RESPONSE	n/a	n/a	n/a	n/a	n/a	n/a	n/a	yellow
261.9387	1.0167	ITI	n/a	n/a	n/a	n/a	n/a	n/a	n/a	n/a
262.9554	0.5167	FIXCROSS	n/a	n/a	n/a	n/a	n/a	n/a	n/a	n/a
263.4721	0.95	COLOR_NAME	7	Incongruent	niebieski	blue	czerwony	red	hit	n/a
264.3943	n/a	RESPONSE	n/a	n/a	n/a	n/a	n/a	n/a	n/a	blue
264.4221	1.0167	ITI	n/a	n/a	n/a	n/a	n/a	n/a	n/a	n/a
265.4388	0.5167	FIXCROSS	n/a	n/a	n/a	n/a	n/a	n/a	n/a	n/a
265.9554	0.7	COLOR_NAME	8	Neutral	żółty	yellow	Neutral	Neutral	hit	n/a
266.6301	n/a	RESPONSE	n/a	n/a	n/a	n/a	n/a	n/a	n/a	yellow
266.6554	1.0167	ITI	n/a	n/a	n/a	n/a	n/a	n/a	n/a	n/a
267.6721	0.5167	FIXCROSS	n/a	n/a	n/a	n/a	n/a	n/a	n/a	n/a
268.1888	0.5333	COLOR_NAME	9	Incongruent	czerwony	red	żółty	yellow	hit	n/a
268.6902	n/a	RESPONSE	n/a	n/a	n/a	n/a	n/a	n/a	n/a	red
268.7221	1.0167	ITI	n/a	n/a	n/a	n/a	n/a	n/a	n/a	n/a
269.7388	0.5167	FIXCROSS	n/a	n/a	n/a	n/a	n/a	n/a	n/a	n/a
270.2555	0.5333	COLOR_NAME	10	Neutral	żółty	yellow	Neutral	Neutral	hit	n/a
270.7662	n/a	RESPONSE	n/a	n/a	n/a	n/a	n/a	n/a	n/a	yellow
270.7888	1.0167	ITI	n/a	n/a	n/a	n/a	n/a	n/a	n/a	n/a
271.8055	0.5167	FIXCROSS	n/a	n/a	n/a	n/a	n/a	n/a	n/a	n/a
272.3222	0.4833	COLOR_NAME	11	Neutral	żółty	yellow	Neutral	Neutral	incorrect	n/a
272.7784	n/a	RESPONSE	n/a	n/a	n/a	n/a	n/a	n/a	n/a	green
272.8055	1.0167	ITI	n/a	n/a	n/a	n/a	n/a	n/a	n/a	n/a
272.8423	n/a	RESPONSE	n/a	n/a	n/a	n/a	n/a	n/a	n/a	yellow
273.8222	0.5167	FIXCROSS	n/a	n/a	n/a	n/a	n/a	n/a	n/a	n/a
274.3389	0.4667	COLOR_NAME	12	Neutral	żółty	yellow	Neutral	Neutral	hit	n/a
274.7746	n/a	RESPONSE	n/a	n/a	n/a	n/a	n/a	n/a	n/a	yellow
274.8055	1.0167	ITI	n/a	n/a	n/a	n/a	n/a	n/a	n/a	n/a
275.8222	0.5167	FIXCROSS	n/a	n/a	n/a	n/a	n/a	n/a	n/a	n/a
276.3389	0.5333	COLOR_NAME	13	Incongruent	zielony	green	czerwony	red	hit	n/a
276.8506	n/a	RESPONSE	n/a	n/a	n/a	n/a	n/a	n/a	n/a	green
276.8722	1.0167	ITI	n/a	n/a	n/a	n/a	n/a	n/a	n/a	n/a
277.8889	0.5167	FIXCROSS	n/a	n/a	n/a	n/a	n/a	n/a	n/a	n/a
278.4056	0.6	COLOR_NAME	14	Incongruent	niebieski	blue	zielony	green	hit	n/a
278.9746	n/a	RESPONSE	n/a	n/a	n/a	n/a	n/a	n/a	n/a	blue
279.0056	1.0167	ITI	n/a	n/a	n/a	n/a	n/a	n/a	n/a	n/a
280.0223	0.5167	FIXCROSS	n/a	n/a	n/a	n/a	n/a	n/a	n/a	n/a
280.5389	0.8167	COLOR_NAME	15	Neutral	zielony	green	Neutral	Neutral	hit	n/a
281.3221	n/a	RESPONSE	n/a	n/a	n/a	n/a	n/a	n/a	n/a	green
281.3556	1.0167	ITI	n/a	n/a	n/a	n/a	n/a	n/a	n/a	n/a
282.3723	0.5167	FIXCROSS	n/a	n/a	n/a	n/a	n/a	n/a	n/a	n/a
282.889	0.5834	COLOR_NAME	16	Incongruent	żółty	yellow	zielony	green	hit	n/a
283.4622	n/a	RESPONSE	n/a	n/a	n/a	n/a	n/a	n/a	n/a	yellow
283.4723	1.0	ITI	n/a	n/a	n/a	n/a	n/a	n/a	n/a	n/a
284.4723	0.5	FIXCROSS	n/a	n/a	n/a	n/a	n/a	n/a	n/a	n/a
284.9723	0.7333	COLOR_NAME	17	Incongruent	niebieski	blue	żółty	yellow	hit	n/a
285.6979	n/a	RESPONSE	n/a	n/a	n/a	n/a	n/a	n/a	n/a	blue
285.7057	1.0	ITI	n/a	n/a	n/a	n/a	n/a	n/a	n/a	n/a
286.7057	0.5	FIXCROSS	n/a	n/a	n/a	n/a	n/a	n/a	n/a	n/a
287.2057	0.3667	COLOR_NAME	18	Neutral	czerwony	red	Neutral	Neutral	hit	n/a
287.5664	n/a	RESPONSE	n/a	n/a	n/a	n/a	n/a	n/a	n/a	red
287.5723	1.0167	ITI	n/a	n/a	n/a	n/a	n/a	n/a	n/a	n/a
288.589	0.5167	FIXCROSS	n/a	n/a	n/a	n/a	n/a	n/a	n/a	n/a
289.1057	0.6	COLOR_NAME	19	Incongruent	zielony	green	czerwony	red	hit	n/a
289.6744	n/a	RESPONSE	n/a	n/a	n/a	n/a	n/a	n/a	n/a	green
289.7057	1.0167	ITI	n/a	n/a	n/a	n/a	n/a	n/a	n/a	n/a
290.7224	0.5167	FIXCROSS	n/a	n/a	n/a	n/a	n/a	n/a	n/a	n/a
291.2391	0.5667	COLOR_NAME	20	Incongruent	czerwony	red	niebieski	blue	hit	n/a
291.7824	n/a	RESPONSE	n/a	n/a	n/a	n/a	n/a	n/a	n/a	red
291.8057	1.0167	ITI	n/a	n/a	n/a	n/a	n/a	n/a	n/a	n/a
292.8224	0.5167	FIXCROSS	n/a	n/a	n/a	n/a	n/a	n/a	n/a	n/a
293.3391	0.5333	COLOR_NAME	21	Neutral	czerwony	red	Neutral	Neutral	hit	n/a
293.8425	n/a	RESPONSE	n/a	n/a	n/a	n/a	n/a	n/a	n/a	red
293.8724	1.0167	ITI	n/a	n/a	n/a	n/a	n/a	n/a	n/a	n/a
294.8891	0.5167	FIXCROSS	n/a	n/a	n/a	n/a	n/a	n/a	n/a	n/a
295.4058	0.4167	COLOR_NAME	22	Neutral	czerwony	red	Neutral	Neutral	hit	n/a
295.7909	n/a	RESPONSE	n/a	n/a	n/a	n/a	n/a	n/a	n/a	red
295.8224	1.0167	ITI	n/a	n/a	n/a	n/a	n/a	n/a	n/a	n/a
296.8391	0.5167	FIXCROSS	n/a	n/a	n/a	n/a	n/a	n/a	n/a	n/a
297.3558	0.6	COLOR_NAME	23	Neutral	niebieski	blue	Neutral	Neutral	hit	n/a
297.9307	n/a	RESPONSE	n/a	n/a	n/a	n/a	n/a	n/a	n/a	blue
297.9558	1.0167	ITI	n/a	n/a	n/a	n/a	n/a	n/a	n/a	n/a
298.9725	0.5167	FIXCROSS	n/a	n/a	n/a	n/a	n/a	n/a	n/a	n/a
299.4891	0.4833	COLOR_NAME	24	Neutral	żółty	yellow	Neutral	Neutral	hit	n/a
299.9429	n/a	RESPONSE	n/a	n/a	n/a	n/a	n/a	n/a	n/a	yellow
299.9725	1.0167	ITI	n/a	n/a	n/a	n/a	n/a	n/a	n/a	n/a
300.9892	0.5167	FIXCROSS	n/a	n/a	n/a	n/a	n/a	n/a	n/a	n/a
301.5058	0.9333	COLOR_NAME	25	Neutral	zielony	green	Neutral	Neutral	hit	n/a
302.4183	n/a	RESPONSE	n/a	n/a	n/a	n/a	n/a	n/a	n/a	green
302.4392	1.0167	ITI	n/a	n/a	n/a	n/a	n/a	n/a	n/a	n/a
303.4558	0.5167	FIXCROSS	n/a	n/a	n/a	n/a	n/a	n/a	n/a	n/a
303.9725	0.5333	COLOR_NAME	26	Incongruent	zielony	green	niebieski	blue	hit	n/a
304.4783	n/a	RESPONSE	n/a	n/a	n/a	n/a	n/a	n/a	n/a	green
304.5059	1.0167	ITI	n/a	n/a	n/a	n/a	n/a	n/a	n/a	n/a
305.5225	0.5167	FIXCROSS	n/a	n/a	n/a	n/a	n/a	n/a	n/a	n/a
306.0392	0.5667	COLOR_NAME	27	Incongruent	zielony	green	niebieski	blue	hit	n/a
306.5863	n/a	RESPONSE	n/a	n/a	n/a	n/a	n/a	n/a	n/a	green
306.6059	1.0167	ITI	n/a	n/a	n/a	n/a	n/a	n/a	n/a	n/a
307.6226	0.5167	FIXCROSS	n/a	n/a	n/a	n/a	n/a	n/a	n/a	n/a
308.1392	0.6	COLOR_NAME	28	Neutral	zielony	green	Neutral	Neutral	hit	n/a
308.7103	n/a	RESPONSE	n/a	n/a	n/a	n/a	n/a	n/a	n/a	green
308.7392	1.0167	ITI	n/a	n/a	n/a	n/a	n/a	n/a	n/a	n/a
309.7559	0.5167	FIXCROSS	n/a	n/a	n/a	n/a	n/a	n/a	n/a	n/a
310.2726	0.4667	COLOR_NAME	29	Neutral	zielony	green	Neutral	Neutral	hit	n/a
310.7065	n/a	RESPONSE	n/a	n/a	n/a	n/a	n/a	n/a	n/a	green
310.7393	1.0167	ITI	n/a	n/a	n/a	n/a	n/a	n/a	n/a	n/a
311.7559	0.5167	FIXCROSS	n/a	n/a	n/a	n/a	n/a	n/a	n/a	n/a
312.2726	0.45	COLOR_NAME	30	Neutral	czerwony	red	Neutral	Neutral	hit	n/a
312.7026	n/a	RESPONSE	n/a	n/a	n/a	n/a	n/a	n/a	n/a	red
312.7226	1.0167	ITI	n/a	n/a	n/a	n/a	n/a	n/a	n/a	n/a
313.7393	0.5167	FIXCROSS	n/a	n/a	n/a	n/a	n/a	n/a	n/a	n/a
314.256	0.65	COLOR_NAME	31	Incongruent	żółty	yellow	niebieski	blue	hit	n/a
314.8745	n/a	RESPONSE	n/a	n/a	n/a	n/a	n/a	n/a	n/a	yellow
314.906	1.0167	ITI	n/a	n/a	n/a	n/a	n/a	n/a	n/a	n/a
315.9227	0.5167	FIXCROSS	n/a	n/a	n/a	n/a	n/a	n/a	n/a	n/a
316.4393	0.65	COLOR_NAME	32	Incongruent	żółty	yellow	zielony	green	hit	n/a
317.0623	n/a	RESPONSE	n/a	n/a	n/a	n/a	n/a	n/a	n/a	yellow
317.0893	1.0167	ITI	n/a	n/a	n/a	n/a	n/a	n/a	n/a	n/a
318.106	0.5167	FIXCROSS	n/a	n/a	n/a	n/a	n/a	n/a	n/a	n/a
318.6227	0.8167	COLOR_NAME	33	Incongruent	niebieski	blue	czerwony	red	hit	n/a
319.4099	n/a	RESPONSE	n/a	n/a	n/a	n/a	n/a	n/a	n/a	blue
319.4394	1.0167	ITI	n/a	n/a	n/a	n/a	n/a	n/a	n/a	n/a
320.456	0.5167	FIXCROSS	n/a	n/a	n/a	n/a	n/a	n/a	n/a	n/a
320.9727	0.6333	COLOR_NAME	34	Incongruent	czerwony	red	zielony	green	hit	n/a
321.5818	n/a	RESPONSE	n/a	n/a	n/a	n/a	n/a	n/a	n/a	red
321.6061	1.0167	ITI	n/a	n/a	n/a	n/a	n/a	n/a	n/a	n/a
322.6227	0.5167	FIXCROSS	n/a	n/a	n/a	n/a	n/a	n/a	n/a	n/a
323.1394	0.7167	COLOR_NAME	35	Incongruent	żółty	yellow	czerwony	red	hit	n/a
323.8335	n/a	RESPONSE	n/a	n/a	n/a	n/a	n/a	n/a	n/a	yellow
323.8561	1.0167	ITI	n/a	n/a	n/a	n/a	n/a	n/a	n/a	n/a
324.8727	0.5167	FIXCROSS	n/a	n/a	n/a	n/a	n/a	n/a	n/a	n/a
325.3894	0.4333	COLOR_NAME	36	Neutral	czerwony	red	Neutral	Neutral	hit	n/a
325.7977	n/a	RESPONSE	n/a	n/a	n/a	n/a	n/a	n/a	n/a	red
325.8228	1.0167	ITI	n/a	n/a	n/a	n/a	n/a	n/a	n/a	n/a
326.8394	0.5167	FIXCROSS	n/a	n/a	n/a	n/a	n/a	n/a	n/a	n/a
327.3561	0.6167	COLOR_NAME	37	Incongruent	zielony	green	żółty	yellow	hit	n/a
327.9536	n/a	RESPONSE	n/a	n/a	n/a	n/a	n/a	n/a	n/a	green
327.9728	1.0167	ITI	n/a	n/a	n/a	n/a	n/a	n/a	n/a	n/a
328.9895	0.5167	FIXCROSS	n/a	n/a	n/a	n/a	n/a	n/a	n/a	n/a
329.5061	0.4833	COLOR_NAME	38	Neutral	czerwony	red	Neutral	Neutral	hit	n/a
329.9659	n/a	RESPONSE	n/a	n/a	n/a	n/a	n/a	n/a	n/a	red
329.9895	1.0167	ITI	n/a	n/a	n/a	n/a	n/a	n/a	n/a	n/a
331.0062	0.5167	FIXCROSS	n/a	n/a	n/a	n/a	n/a	n/a	n/a	n/a
331.5228	0.4333	COLOR_NAME	39	Neutral	czerwony	red	Neutral	Neutral	hit	n/a
331.9301	n/a	RESPONSE	n/a	n/a	n/a	n/a	n/a	n/a	n/a	red
331.9562	1.0167	ITI	n/a	n/a	n/a	n/a	n/a	n/a	n/a	n/a
332.9728	0.5167	FIXCROSS	n/a	n/a	n/a	n/a	n/a	n/a	n/a	n/a
333.4895	0.5	COLOR_NAME	40	Neutral	niebieski	blue	Neutral	Neutral	hit	n/a
333.9582	n/a	RESPONSE	n/a	n/a	n/a	n/a	n/a	n/a	n/a	blue
333.9895	1.0167	ITI	n/a	n/a	n/a	n/a	n/a	n/a	n/a	n/a
335.0062	0.5167	FIXCROSS	n/a	n/a	n/a	n/a	n/a	n/a	n/a	n/a
335.5229	0.4167	COLOR_NAME	41	Neutral	niebieski	blue	Neutral	Neutral	hit	n/a
335.9066	n/a	RESPONSE	n/a	n/a	n/a	n/a	n/a	n/a	n/a	blue
335.9395	1.0167	ITI	n/a	n/a	n/a	n/a	n/a	n/a	n/a	n/a
336.9562	0.5167	FIXCROSS	n/a	n/a	n/a	n/a	n/a	n/a	n/a	n/a
337.4729	0.55	COLOR_NAME	42	Neutral	zielony	green	Neutral	Neutral	hit	n/a
337.9985	n/a	RESPONSE	n/a	n/a	n/a	n/a	n/a	n/a	n/a	green
338.0229	1.0167	ITI	n/a	n/a	n/a	n/a	n/a	n/a	n/a	n/a
339.0396	0.5167	FIXCROSS	n/a	n/a	n/a	n/a	n/a	n/a	n/a	n/a
339.5562	0.6667	COLOR_NAME	43	Neutral	niebieski	blue	Neutral	Neutral	hit	n/a
340.2023	n/a	RESPONSE	n/a	n/a	n/a	n/a	n/a	n/a	n/a	blue
340.2229	1.0167	ITI	n/a	n/a	n/a	n/a	n/a	n/a	n/a	n/a
341.2396	0.5167	FIXCROSS	n/a	n/a	n/a	n/a	n/a	n/a	n/a	n/a
341.7563	0.55	COLOR_NAME	44	Incongruent	niebieski	blue	czerwony	red	hit	n/a
342.2784	n/a	RESPONSE	n/a	n/a	n/a	n/a	n/a	n/a	n/a	blue
342.3063	1.0167	ITI	n/a	n/a	n/a	n/a	n/a	n/a	n/a	n/a
343.323	0.5167	FIXCROSS	n/a	n/a	n/a	n/a	n/a	n/a	n/a	n/a
343.8396	0.5333	COLOR_NAME	45	Neutral	zielony	green	Neutral	Neutral	hit	n/a
344.3545	n/a	RESPONSE	n/a	n/a	n/a	n/a	n/a	n/a	n/a	green
344.373	1.0167	ITI	n/a	n/a	n/a	n/a	n/a	n/a	n/a	n/a
345.3896	0.5167	FIXCROSS	n/a	n/a	n/a	n/a	n/a	n/a	n/a	n/a
345.9063	0.5	COLOR_NAME	46	Neutral	niebieski	blue	Neutral	Neutral	hit	n/a
346.3826	n/a	RESPONSE	n/a	n/a	n/a	n/a	n/a	n/a	n/a	blue
346.4063	1.0167	ITI	n/a	n/a	n/a	n/a	n/a	n/a	n/a	n/a
347.423	0.5167	FIXCROSS	n/a	n/a	n/a	n/a	n/a	n/a	n/a	n/a
347.9397	0.6667	COLOR_NAME	47	Incongruent	żółty	yellow	zielony	green	hit	n/a
348.5864	n/a	RESPONSE	n/a	n/a	n/a	n/a	n/a	n/a	n/a	yellow
348.6064	1.0167	ITI	n/a	n/a	n/a	n/a	n/a	n/a	n/a	n/a
349.623	0.5167	FIXCROSS	n/a	n/a	n/a	n/a	n/a	n/a	n/a	n/a
350.1397	0.55	COLOR_NAME	48	Incongruent	niebieski	blue	zielony	green	hit	n/a
350.6624	n/a	RESPONSE	n/a	n/a	n/a	n/a	n/a	n/a	n/a	blue
350.6897	1.0167	ITI	n/a	n/a	n/a	n/a	n/a	n/a	n/a	n/a
351.7064	0.5167	FIXCROSS	n/a	n/a	n/a	n/a	n/a	n/a	n/a	n/a
352.2231	0.5167	COLOR_NAME	49	Incongruent	niebieski	blue	żółty	yellow	hit	n/a
352.7066	n/a	RESPONSE	n/a	n/a	n/a	n/a	n/a	n/a	n/a	blue
352.7397	1.0167	ITI	n/a	n/a	n/a	n/a	n/a	n/a	n/a	n/a
353.7564	0.5167	FIXCROSS	n/a	n/a	n/a	n/a	n/a	n/a	n/a	n/a
354.2731	0.5833	COLOR_NAME	50	Neutral	żółty	yellow	Neutral	Neutral	hit	n/a
354.8306	n/a	RESPONSE	n/a	n/a	n/a	n/a	n/a	n/a	n/a	yellow
354.8564	1.0167	ITI	n/a	n/a	n/a	n/a	n/a	n/a	n/a	n/a
355.8731	0.5167	FIXCROSS	n/a	n/a	n/a	n/a	n/a	n/a	n/a	n/a
356.3898	0.55	COLOR_NAME	51	Neutral	niebieski	blue	Neutral	Neutral	hit	n/a
356.9067	n/a	RESPONSE	n/a	n/a	n/a	n/a	n/a	n/a	n/a	blue
356.9398	1.0167	ITI	n/a	n/a	n/a	n/a	n/a	n/a	n/a	n/a
357.9564	0.5167	FIXCROSS	n/a	n/a	n/a	n/a	n/a	n/a	n/a	n/a
358.4731	0.5667	COLOR_NAME	52	Neutral	żółty	yellow	Neutral	Neutral	hit	n/a
359.0147	n/a	RESPONSE	n/a	n/a	n/a	n/a	n/a	n/a	n/a	yellow
359.0398	1.0167	ITI	n/a	n/a	n/a	n/a	n/a	n/a	n/a	n/a
360.0565	0.5167	FIXCROSS	n/a	n/a	n/a	n/a	n/a	n/a	n/a	n/a
360.5731	0.6167	COLOR_NAME	53	Neutral	czerwony	red	Neutral	Neutral	hit	n/a
361.1705	n/a	RESPONSE	n/a	n/a	n/a	n/a	n/a	n/a	n/a	red
361.1898	1.0167	ITI	n/a	n/a	n/a	n/a	n/a	n/a	n/a	n/a
362.2065	0.5167	FIXCROSS	n/a	n/a	n/a	n/a	n/a	n/a	n/a	n/a
362.7232	0.6167	COLOR_NAME	54	Neutral	zielony	green	Neutral	Neutral	hit	n/a
363.3104	n/a	RESPONSE	n/a	n/a	n/a	n/a	n/a	n/a	n/a	green
363.3398	1.0167	ITI	n/a	n/a	n/a	n/a	n/a	n/a	n/a	n/a
364.3565	0.5167	FIXCROSS	n/a	n/a	n/a	n/a	n/a	n/a	n/a	n/a
364.8732	0.45	COLOR_NAME	55	Neutral	zielony	green	Neutral	Neutral	hit	n/a
365.2906	n/a	RESPONSE	n/a	n/a	n/a	n/a	n/a	n/a	n/a	green
365.3232	1.0167	ITI	n/a	n/a	n/a	n/a	n/a	n/a	n/a	n/a
366.3399	0.5167	FIXCROSS	n/a	n/a	n/a	n/a	n/a	n/a	n/a	n/a
366.8565	0.65	COLOR_NAME	56	Neutral	niebieski	blue	Neutral	Neutral	hit	n/a
367.4785	n/a	RESPONSE	n/a	n/a	n/a	n/a	n/a	n/a	n/a	blue
367.5066	1.0167	ITI	n/a	n/a	n/a	n/a	n/a	n/a	n/a	n/a
368.5232	0.5167	FIXCROSS	n/a	n/a	n/a	n/a	n/a	n/a	n/a	n/a
369.0399	0.55	COLOR_NAME	57	Incongruent	niebieski	blue	zielony	green	hit	n/a
369.5705	n/a	RESPONSE	n/a	n/a	n/a	n/a	n/a	n/a	n/a	blue
369.5899	1.0167	ITI	n/a	n/a	n/a	n/a	n/a	n/a	n/a	n/a
370.6066	0.5167	FIXCROSS	n/a	n/a	n/a	n/a	n/a	n/a	n/a	n/a
371.1233	0.45	COLOR_NAME	58	Neutral	niebieski	blue	Neutral	Neutral	hit	n/a
371.5508	n/a	RESPONSE	n/a	n/a	n/a	n/a	n/a	n/a	n/a	blue
371.5733	1.0167	ITI	n/a	n/a	n/a	n/a	n/a	n/a	n/a	n/a
372.5899	0.5167	FIXCROSS	n/a	n/a	n/a	n/a	n/a	n/a	n/a	n/a
373.1066	0.5333	COLOR_NAME	59	Incongruent	zielony	green	niebieski	blue	hit	n/a
373.6108	n/a	RESPONSE	n/a	n/a	n/a	n/a	n/a	n/a	n/a	green
373.64	1.0167	ITI	n/a	n/a	n/a	n/a	n/a	n/a	n/a	n/a
374.6566	0.5167	FIXCROSS	n/a	n/a	n/a	n/a	n/a	n/a	n/a	n/a
375.1733	0.6333	COLOR_NAME	60	Neutral	żółty	yellow	Neutral	Neutral	hit	n/a
375.7826	n/a	RESPONSE	n/a	n/a	n/a	n/a	n/a	n/a	n/a	yellow
375.8066	1.0167	ITI	n/a	n/a	n/a	n/a	n/a	n/a	n/a	n/a
376.8233	0.5167	FIXCROSS	n/a	n/a	n/a	n/a	n/a	n/a	n/a	n/a
377.34	0.5333	COLOR_NAME	61	Incongruent	czerwony	red	żółty	yellow	hit	n/a
377.8428	n/a	RESPONSE	n/a	n/a	n/a	n/a	n/a	n/a	n/a	red
377.8733	1.0167	ITI	n/a	n/a	n/a	n/a	n/a	n/a	n/a	n/a
378.89	0.5167	FIXCROSS	n/a	n/a	n/a	n/a	n/a	n/a	n/a	n/a
379.4067	0.4333	COLOR_NAME	62	Incongruent	czerwony	red	żółty	yellow	hit	n/a
379.8069	n/a	RESPONSE	n/a	n/a	n/a	n/a	n/a	n/a	n/a	red
379.84	1.0167	ITI	n/a	n/a	n/a	n/a	n/a	n/a	n/a	n/a
380.8567	0.5167	FIXCROSS	n/a	n/a	n/a	n/a	n/a	n/a	n/a	n/a
381.3734	0.75	COLOR_NAME	63	Incongruent	zielony	green	żółty	yellow	hit	n/a
382.0906	n/a	RESPONSE	n/a	n/a	n/a	n/a	n/a	n/a	n/a	green
382.1234	1.0167	ITI	n/a	n/a	n/a	n/a	n/a	n/a	n/a	n/a
383.1401	0.5167	FIXCROSS	n/a	n/a	n/a	n/a	n/a	n/a	n/a	n/a
383.6567	0.6833	COLOR_NAME	64	Incongruent	żółty	yellow	niebieski	blue	hit	n/a
384.3103	n/a	RESPONSE	n/a	n/a	n/a	n/a	n/a	n/a	n/a	yellow
384.3401	1.0167	ITI	n/a	n/a	n/a	n/a	n/a	n/a	n/a	n/a
385.3568	0.5167	FIXCROSS	n/a	n/a	n/a	n/a	n/a	n/a	n/a	n/a
385.8734	0.4833	COLOR_NAME	65	Incongruent	czerwony	red	niebieski	blue	hit	n/a
386.3386	n/a	RESPONSE	n/a	n/a	n/a	n/a	n/a	n/a	n/a	red
386.3568	1.0167	ITI	n/a	n/a	n/a	n/a	n/a	n/a	n/a	n/a
387.3734	0.5167	FIXCROSS	n/a	n/a	n/a	n/a	n/a	n/a	n/a	n/a
387.8901	0.3833	COLOR_NAME	66	Neutral	niebieski	blue	Neutral	Neutral	hit	n/a
388.2548	n/a	RESPONSE	n/a	n/a	n/a	n/a	n/a	n/a	n/a	blue
388.2734	1.0167	ITI	n/a	n/a	n/a	n/a	n/a	n/a	n/a	n/a
389.2901	0.5167	FIXCROSS	n/a	n/a	n/a	n/a	n/a	n/a	n/a	n/a
389.8068	0.4833	COLOR_NAME	67	Neutral	czerwony	red	Neutral	Neutral	hit	n/a
390.2671	n/a	RESPONSE	n/a	n/a	n/a	n/a	n/a	n/a	n/a	red
390.2901	1.0167	ITI	n/a	n/a	n/a	n/a	n/a	n/a	n/a	n/a
391.3068	0.5167	FIXCROSS	n/a	n/a	n/a	n/a	n/a	n/a	n/a	n/a
391.8235	0.6167	COLOR_NAME	68	Incongruent	żółty	yellow	niebieski	blue	hit	n/a
392.407	n/a	RESPONSE	n/a	n/a	n/a	n/a	n/a	n/a	n/a	yellow
392.4402	1.0167	ITI	n/a	n/a	n/a	n/a	n/a	n/a	n/a	n/a
393.4568	0.5167	FIXCROSS	n/a	n/a	n/a	n/a	n/a	n/a	n/a	n/a
393.9735	0.6833	COLOR_NAME	69	Incongruent	czerwony	red	niebieski	blue	hit	n/a
394.6268	n/a	RESPONSE	n/a	n/a	n/a	n/a	n/a	n/a	n/a	red
394.6569	1.0167	ITI	n/a	n/a	n/a	n/a	n/a	n/a	n/a	n/a
395.6735	0.5167	FIXCROSS	n/a	n/a	n/a	n/a	n/a	n/a	n/a	n/a
396.1902	0.6333	COLOR_NAME	70	Incongruent	żółty	yellow	czerwony	red	hit	n/a
396.7986	n/a	RESPONSE	n/a	n/a	n/a	n/a	n/a	n/a	n/a	yellow
396.8235	1.0167	ITI	n/a	n/a	n/a	n/a	n/a	n/a	n/a	n/a
397.8402	0.5167	FIXCROSS	n/a	n/a	n/a	n/a	n/a	n/a	n/a	n/a
398.3569	0.5833	COLOR_NAME	71	Incongruent	niebieski	blue	żółty	yellow	hit	n/a
398.9066	n/a	RESPONSE	n/a	n/a	n/a	n/a	n/a	n/a	n/a	blue
398.9402	1.0167	ITI	n/a	n/a	n/a	n/a	n/a	n/a	n/a	n/a
399.9569	0.5167	FIXCROSS	n/a	n/a	n/a	n/a	n/a	n/a	n/a	n/a
400.4736	0.7167	COLOR_NAME	72	Neutral	zielony	green	Neutral	Neutral	hit	n/a
401.1583	n/a	RESPONSE	n/a	n/a	n/a	n/a	n/a	n/a	n/a	green
401.1903	1.0333	ITI	n/a	n/a	n/a	n/a	n/a	n/a	n/a	n/a
418.677	n/a	RESPONSE	n/a	n/a	n/a	n/a	n/a	n/a	n/a	n/a
