onset	duration	trial_type	trial_number	stroop_condition	stim_text(PL)	stim_text(eng)	stim_color(PL)	stim_color(eng)	response_type	response_color
0.0	n/a	RESPONSE	n/a	n/a	n/a	n/a	n/a	n/a	n/a	n/a
0.0575	1.0334	ITI	n/a	n/a	n/a	n/a	n/a	n/a	n/a	n/a
1.0908	0.5167	FIXCROSS	n/a	n/a	n/a	n/a	n/a	n/a	n/a	n/a
1.6075	1.4834	T_INK	1	Neutral	xxxxxxxx	xxxxxxxx	niebieski	blue	hit	n/a
3.0554	n/a	RESPONSE	n/a	n/a	n/a	n/a	n/a	n/a	n/a	blue
3.0909	0.5167	FEEDBACK	n/a	n/a	n/a	n/a	n/a	n/a	n/a	n/a
3.6075	1.0167	ITI	n/a	n/a	n/a	n/a	n/a	n/a	n/a	n/a
4.6242	0.5167	FIXCROSS	n/a	n/a	n/a	n/a	n/a	n/a	n/a	n/a
5.1409	1.0167	T_INK	2	Incongruent	żółty	yellow	zielony	green	incorrect	n/a
6.1268	n/a	RESPONSE	n/a	n/a	n/a	n/a	n/a	n/a	n/a	yellow
6.1576	0.5167	FEEDBACK	n/a	n/a	n/a	n/a	n/a	n/a	n/a	n/a
6.6742	1.0167	ITI	n/a	n/a	n/a	n/a	n/a	n/a	n/a	n/a
7.6909	0.5167	FIXCROSS	n/a	n/a	n/a	n/a	n/a	n/a	n/a	n/a
8.2076	0.9667	T_INK	3	Incongruent	zielony	green	żółty	yellow	hit	n/a
9.1501	n/a	RESPONSE	n/a	n/a	n/a	n/a	n/a	n/a	n/a	yellow
9.1743	0.5167	FEEDBACK	n/a	n/a	n/a	n/a	n/a	n/a	n/a	n/a
9.6909	1.0167	ITI	n/a	n/a	n/a	n/a	n/a	n/a	n/a	n/a
10.7076	0.5167	FIXCROSS	n/a	n/a	n/a	n/a	n/a	n/a	n/a	n/a
11.2243	0.9333	T_INK	4	Incongruent	żółty	yellow	niebieski	blue	hit	n/a
12.1255	n/a	RESPONSE	n/a	n/a	n/a	n/a	n/a	n/a	n/a	blue
12.1576	0.5167	FEEDBACK	n/a	n/a	n/a	n/a	n/a	n/a	n/a	n/a
12.6743	1.0167	ITI	n/a	n/a	n/a	n/a	n/a	n/a	n/a	n/a
13.691	0.5167	FIXCROSS	n/a	n/a	n/a	n/a	n/a	n/a	n/a	n/a
14.2077	0.7333	T_INK	5	Neutral	xxxxx	xxxxx	czerwony	red	hit	n/a
14.9089	n/a	RESPONSE	n/a	n/a	n/a	n/a	n/a	n/a	n/a	red
14.941	0.5167	FEEDBACK	n/a	n/a	n/a	n/a	n/a	n/a	n/a	n/a
15.4577	1.0167	ITI	n/a	n/a	n/a	n/a	n/a	n/a	n/a	n/a
16.4743	0.5167	FIXCROSS	n/a	n/a	n/a	n/a	n/a	n/a	n/a	n/a
16.991	0.8	T_INK	6	Neutral	xxxxxxx	xxxxxxx	żółty	yellow	hit	n/a
17.7563	n/a	RESPONSE	n/a	n/a	n/a	n/a	n/a	n/a	n/a	yellow
17.791	0.5167	FEEDBACK	n/a	n/a	n/a	n/a	n/a	n/a	n/a	n/a
18.3077	1.0167	ITI	n/a	n/a	n/a	n/a	n/a	n/a	n/a	n/a
19.3244	0.5167	FIXCROSS	n/a	n/a	n/a	n/a	n/a	n/a	n/a	n/a
19.841	0.9167	T_INK	7	Incongruent	zielony	green	czerwony	red	hit	n/a
20.7318	n/a	RESPONSE	n/a	n/a	n/a	n/a	n/a	n/a	n/a	red
20.7577	0.5167	FEEDBACK	n/a	n/a	n/a	n/a	n/a	n/a	n/a	n/a
21.2744	1.0167	ITI	n/a	n/a	n/a	n/a	n/a	n/a	n/a	n/a
22.2911	0.5167	FIXCROSS	n/a	n/a	n/a	n/a	n/a	n/a	n/a	n/a
22.8078	0.7667	T_INK	8	Neutral	xxxxxxxxx	xxxxxxxxx	czerwony	red	hit	n/a
23.5471	n/a	RESPONSE	n/a	n/a	n/a	n/a	n/a	n/a	n/a	red
23.5744	0.5167	FEEDBACK	n/a	n/a	n/a	n/a	n/a	n/a	n/a	n/a
24.0911	1.0167	ITI	n/a	n/a	n/a	n/a	n/a	n/a	n/a	n/a
25.1078	0.5167	FIXCROSS	n/a	n/a	n/a	n/a	n/a	n/a	n/a	n/a
25.6245	1.05	T_INK	9	Neutral	xxxxxxxx	xxxxxxxx	zielony	green	hit	n/a
26.6505	n/a	RESPONSE	n/a	n/a	n/a	n/a	n/a	n/a	n/a	green
26.6745	0.5167	FEEDBACK	n/a	n/a	n/a	n/a	n/a	n/a	n/a	n/a
27.1911	1.0167	ITI	n/a	n/a	n/a	n/a	n/a	n/a	n/a	n/a
28.2078	0.5167	FIXCROSS	n/a	n/a	n/a	n/a	n/a	n/a	n/a	n/a
28.7245	1.4	T_INK	10	Neutral	xxxxxxxxx	xxxxxxxxx	zielony	green	hit	n/a
30.0897	n/a	RESPONSE	n/a	n/a	n/a	n/a	n/a	n/a	n/a	green
30.1245	0.5167	FEEDBACK	n/a	n/a	n/a	n/a	n/a	n/a	n/a	n/a
30.6412	1.0167	ITI	n/a	n/a	n/a	n/a	n/a	n/a	n/a	n/a
31.6579	0.5167	FIXCROSS	n/a	n/a	n/a	n/a	n/a	n/a	n/a	n/a
32.1745	0.8833	T_INK	11	Incongruent	czerwony	red	niebieski	blue	hit	n/a
33.0331	n/a	RESPONSE	n/a	n/a	n/a	n/a	n/a	n/a	n/a	blue
33.0579	0.5167	FEEDBACK	n/a	n/a	n/a	n/a	n/a	n/a	n/a	n/a
33.5746	1.0167	ITI	n/a	n/a	n/a	n/a	n/a	n/a	n/a	n/a
34.5912	0.5167	FIXCROSS	n/a	n/a	n/a	n/a	n/a	n/a	n/a	n/a
35.1079	0.65	T_INK	12	Neutral	xxxxx	xxxxx	zielony	green	hit	n/a
35.7366	n/a	RESPONSE	n/a	n/a	n/a	n/a	n/a	n/a	n/a	green
35.7579	0.5167	FEEDBACK	n/a	n/a	n/a	n/a	n/a	n/a	n/a	n/a
36.2746	1.0333	ITI	n/a	n/a	n/a	n/a	n/a	n/a	n/a	n/a
46.1504	n/a	RESPONSE	n/a	n/a	n/a	n/a	n/a	n/a	n/a	n/a
46.208	1.0167	ITI	n/a	n/a	n/a	n/a	n/a	n/a	n/a	n/a
47.2247	0.5167	FIXCROSS	n/a	n/a	n/a	n/a	n/a	n/a	n/a	n/a
47.7414	0.7833	INK	1	Neutral	xxxxx	xxxxx	zielony	green	hit	n/a
48.5019	n/a	RESPONSE	n/a	n/a	n/a	n/a	n/a	n/a	n/a	green
48.5247	1.0167	ITI	n/a	n/a	n/a	n/a	n/a	n/a	n/a	n/a
49.5414	0.5167	FIXCROSS	n/a	n/a	n/a	n/a	n/a	n/a	n/a	n/a
50.0581	0.75	INK	2	Neutral	xxxxxxxx	xxxxxxxx	żółty	yellow	hit	n/a
50.7894	n/a	RESPONSE	n/a	n/a	n/a	n/a	n/a	n/a	n/a	yellow
50.8081	1.0167	ITI	n/a	n/a	n/a	n/a	n/a	n/a	n/a	n/a
51.8248	0.5167	FIXCROSS	n/a	n/a	n/a	n/a	n/a	n/a	n/a	n/a
52.3414	0.6	INK	3	Neutral	xxxxxxxx	xxxxxxxx	żółty	yellow	hit	n/a
52.917	n/a	RESPONSE	n/a	n/a	n/a	n/a	n/a	n/a	n/a	yellow
52.9415	1.0167	ITI	n/a	n/a	n/a	n/a	n/a	n/a	n/a	n/a
53.9581	0.5167	FIXCROSS	n/a	n/a	n/a	n/a	n/a	n/a	n/a	n/a
54.4748	1.1833	INK	4	Incongruent	czerwony	red	zielony	green	hit	n/a
55.6364	n/a	RESPONSE	n/a	n/a	n/a	n/a	n/a	n/a	n/a	green
55.6582	1.0167	ITI	n/a	n/a	n/a	n/a	n/a	n/a	n/a	n/a
56.6748	0.5167	FIXCROSS	n/a	n/a	n/a	n/a	n/a	n/a	n/a	n/a
57.1915	0.7833	INK	5	Incongruent	czerwony	red	niebieski	blue	hit	n/a
57.9559	n/a	RESPONSE	n/a	n/a	n/a	n/a	n/a	n/a	n/a	blue
57.9749	1.0167	ITI	n/a	n/a	n/a	n/a	n/a	n/a	n/a	n/a
58.9915	0.5167	FIXCROSS	n/a	n/a	n/a	n/a	n/a	n/a	n/a	n/a
59.5082	0.55	INK	6	Neutral	xxxxxxxxx	xxxxxxxxx	zielony	green	hit	n/a
60.0355	n/a	RESPONSE	n/a	n/a	n/a	n/a	n/a	n/a	n/a	green
60.0582	1.0167	ITI	n/a	n/a	n/a	n/a	n/a	n/a	n/a	n/a
61.0749	0.5167	FIXCROSS	n/a	n/a	n/a	n/a	n/a	n/a	n/a	n/a
61.5916	0.5167	INK	7	Neutral	xxxxxxxxx	xxxxxxxxx	czerwony	red	hit	n/a
62.0831	n/a	RESPONSE	n/a	n/a	n/a	n/a	n/a	n/a	n/a	red
62.1082	1.0167	ITI	n/a	n/a	n/a	n/a	n/a	n/a	n/a	n/a
63.1249	0.5167	FIXCROSS	n/a	n/a	n/a	n/a	n/a	n/a	n/a	n/a
63.6416	0.7	INK	8	Incongruent	czerwony	red	żółty	yellow	hit	n/a
64.3226	n/a	RESPONSE	n/a	n/a	n/a	n/a	n/a	n/a	n/a	yellow
64.3416	1.0167	ITI	n/a	n/a	n/a	n/a	n/a	n/a	n/a	n/a
65.3583	0.5167	FIXCROSS	n/a	n/a	n/a	n/a	n/a	n/a	n/a	n/a
65.8749	0.5167	INK	9	Neutral	xxxxxxxx	xxxxxxxx	żółty	yellow	hit	n/a
66.3702	n/a	RESPONSE	n/a	n/a	n/a	n/a	n/a	n/a	n/a	yellow
66.3916	1.0167	ITI	n/a	n/a	n/a	n/a	n/a	n/a	n/a	n/a
67.4083	0.5167	FIXCROSS	n/a	n/a	n/a	n/a	n/a	n/a	n/a	n/a
67.925	0.6333	INK	10	Incongruent	zielony	green	niebieski	blue	hit	n/a
68.5297	n/a	RESPONSE	n/a	n/a	n/a	n/a	n/a	n/a	n/a	blue
68.5583	1.0167	ITI	n/a	n/a	n/a	n/a	n/a	n/a	n/a	n/a
69.575	0.5167	FIXCROSS	n/a	n/a	n/a	n/a	n/a	n/a	n/a	n/a
70.0917	0.5333	INK	11	Incongruent	czerwony	red	zielony	green	hit	n/a
70.5933	n/a	RESPONSE	n/a	n/a	n/a	n/a	n/a	n/a	n/a	green
70.625	1.0167	ITI	n/a	n/a	n/a	n/a	n/a	n/a	n/a	n/a
71.6417	0.5167	FIXCROSS	n/a	n/a	n/a	n/a	n/a	n/a	n/a	n/a
72.1583	0.6834	INK	12	Incongruent	czerwony	red	niebieski	blue	hit	n/a
72.8168	n/a	RESPONSE	n/a	n/a	n/a	n/a	n/a	n/a	n/a	blue
72.8417	1.0167	ITI	n/a	n/a	n/a	n/a	n/a	n/a	n/a	n/a
73.8584	0.5167	FIXCROSS	n/a	n/a	n/a	n/a	n/a	n/a	n/a	n/a
74.3751	0.9333	INK	13	Incongruent	żółty	yellow	zielony	green	hit	n/a
75.2803	n/a	RESPONSE	n/a	n/a	n/a	n/a	n/a	n/a	n/a	green
75.3084	1.0167	ITI	n/a	n/a	n/a	n/a	n/a	n/a	n/a	n/a
76.3251	0.5167	FIXCROSS	n/a	n/a	n/a	n/a	n/a	n/a	n/a	n/a
76.8417	0.6667	INK	14	Neutral	xxxxxxxx	xxxxxxxx	niebieski	blue	hit	n/a
77.4879	n/a	RESPONSE	n/a	n/a	n/a	n/a	n/a	n/a	n/a	blue
77.5084	1.0167	ITI	n/a	n/a	n/a	n/a	n/a	n/a	n/a	n/a
78.5251	0.5167	FIXCROSS	n/a	n/a	n/a	n/a	n/a	n/a	n/a	n/a
79.0418	0.5333	INK	15	Incongruent	zielony	green	żółty	yellow	hit	n/a
79.5514	n/a	RESPONSE	n/a	n/a	n/a	n/a	n/a	n/a	n/a	yellow
79.5751	1.0167	ITI	n/a	n/a	n/a	n/a	n/a	n/a	n/a	n/a
80.5918	0.5167	FIXCROSS	n/a	n/a	n/a	n/a	n/a	n/a	n/a	n/a
81.1085	0.7167	INK	16	Neutral	xxxxxxxx	xxxxxxxx	niebieski	blue	hit	n/a
81.8069	n/a	RESPONSE	n/a	n/a	n/a	n/a	n/a	n/a	n/a	blue
81.8251	1.0167	ITI	n/a	n/a	n/a	n/a	n/a	n/a	n/a	n/a
82.8418	0.5167	FIXCROSS	n/a	n/a	n/a	n/a	n/a	n/a	n/a	n/a
83.3585	0.6333	INK	17	Neutral	xxxxx	xxxxx	czerwony	red	hit	n/a
83.9665	n/a	RESPONSE	n/a	n/a	n/a	n/a	n/a	n/a	n/a	red
83.9918	1.0167	ITI	n/a	n/a	n/a	n/a	n/a	n/a	n/a	n/a
85.0085	0.5167	FIXCROSS	n/a	n/a	n/a	n/a	n/a	n/a	n/a	n/a
85.5252	0.65	INK	18	Neutral	xxxxxxx	xxxxxxx	czerwony	red	hit	n/a
86.142	n/a	RESPONSE	n/a	n/a	n/a	n/a	n/a	n/a	n/a	red
86.1752	1.0167	ITI	n/a	n/a	n/a	n/a	n/a	n/a	n/a	n/a
87.1919	0.5167	FIXCROSS	n/a	n/a	n/a	n/a	n/a	n/a	n/a	n/a
87.7085	0.7	INK	19	Incongruent	niebieski	blue	żółty	yellow	hit	n/a
88.3816	n/a	RESPONSE	n/a	n/a	n/a	n/a	n/a	n/a	n/a	yellow
88.4085	1.0167	ITI	n/a	n/a	n/a	n/a	n/a	n/a	n/a	n/a
89.4252	0.5167	FIXCROSS	n/a	n/a	n/a	n/a	n/a	n/a	n/a	n/a
89.9419	0.5167	INK	20	Neutral	xxxxxxx	xxxxxxx	żółty	yellow	hit	n/a
90.4291	n/a	RESPONSE	n/a	n/a	n/a	n/a	n/a	n/a	n/a	yellow
90.4586	1.0167	ITI	n/a	n/a	n/a	n/a	n/a	n/a	n/a	n/a
91.4752	0.5167	FIXCROSS	n/a	n/a	n/a	n/a	n/a	n/a	n/a	n/a
91.9919	0.7	INK	21	Incongruent	żółty	yellow	zielony	green	hit	n/a
92.6687	n/a	RESPONSE	n/a	n/a	n/a	n/a	n/a	n/a	n/a	green
92.6919	1.0167	ITI	n/a	n/a	n/a	n/a	n/a	n/a	n/a	n/a
93.7086	0.5167	FIXCROSS	n/a	n/a	n/a	n/a	n/a	n/a	n/a	n/a
94.2253	0.8834	INK	22	Neutral	xxxxxxx	xxxxxxx	niebieski	blue	hit	n/a
95.0842	n/a	RESPONSE	n/a	n/a	n/a	n/a	n/a	n/a	n/a	blue
95.1086	1.0167	ITI	n/a	n/a	n/a	n/a	n/a	n/a	n/a	n/a
96.1253	0.5167	FIXCROSS	n/a	n/a	n/a	n/a	n/a	n/a	n/a	n/a
96.642	0.55	INK	23	Incongruent	zielony	green	żółty	yellow	hit	n/a
97.1637	n/a	RESPONSE	n/a	n/a	n/a	n/a	n/a	n/a	n/a	yellow
97.192	1.0167	ITI	n/a	n/a	n/a	n/a	n/a	n/a	n/a	n/a
98.2087	0.5167	FIXCROSS	n/a	n/a	n/a	n/a	n/a	n/a	n/a	n/a
98.7253	0.4833	INK	24	Neutral	xxxxxxx	xxxxxxx	żółty	yellow	hit	n/a
99.1793	n/a	RESPONSE	n/a	n/a	n/a	n/a	n/a	n/a	n/a	yellow
99.2087	1.0167	ITI	n/a	n/a	n/a	n/a	n/a	n/a	n/a	n/a
100.2254	0.5167	FIXCROSS	n/a	n/a	n/a	n/a	n/a	n/a	n/a	n/a
100.742	0.95	INK	25	Incongruent	zielony	green	czerwony	red	hit	n/a
101.6588	n/a	RESPONSE	n/a	n/a	n/a	n/a	n/a	n/a	n/a	red
101.692	1.0167	ITI	n/a	n/a	n/a	n/a	n/a	n/a	n/a	n/a
102.7087	0.5167	FIXCROSS	n/a	n/a	n/a	n/a	n/a	n/a	n/a	n/a
103.2254	0.7	INK	26	Incongruent	żółty	yellow	niebieski	blue	hit	n/a
103.8983	n/a	RESPONSE	n/a	n/a	n/a	n/a	n/a	n/a	n/a	blue
103.9254	1.0167	ITI	n/a	n/a	n/a	n/a	n/a	n/a	n/a	n/a
104.9421	0.5167	FIXCROSS	n/a	n/a	n/a	n/a	n/a	n/a	n/a	n/a
105.4587	0.6	INK	27	Neutral	xxxxxxx	xxxxxxx	niebieski	blue	hit	n/a
106.0259	n/a	RESPONSE	n/a	n/a	n/a	n/a	n/a	n/a	n/a	blue
106.0588	1.0167	ITI	n/a	n/a	n/a	n/a	n/a	n/a	n/a	n/a
107.0754	0.5167	FIXCROSS	n/a	n/a	n/a	n/a	n/a	n/a	n/a	n/a
107.5921	0.7167	INK	28	Incongruent	niebieski	blue	czerwony	red	hit	n/a
108.2814	n/a	RESPONSE	n/a	n/a	n/a	n/a	n/a	n/a	n/a	red
108.3088	1.0167	ITI	n/a	n/a	n/a	n/a	n/a	n/a	n/a	n/a
109.3255	0.5167	FIXCROSS	n/a	n/a	n/a	n/a	n/a	n/a	n/a	n/a
109.8421	1.0667	INK	29	Incongruent	niebieski	blue	zielony	green	hit	n/a
110.8889	n/a	RESPONSE	n/a	n/a	n/a	n/a	n/a	n/a	n/a	green
110.9088	1.0167	ITI	n/a	n/a	n/a	n/a	n/a	n/a	n/a	n/a
111.9255	0.5167	FIXCROSS	n/a	n/a	n/a	n/a	n/a	n/a	n/a	n/a
112.4422	0.6	INK	30	Neutral	xxxxxxxx	xxxxxxxx	zielony	green	hit	n/a
113.0164	n/a	RESPONSE	n/a	n/a	n/a	n/a	n/a	n/a	n/a	green
113.0422	1.0167	ITI	n/a	n/a	n/a	n/a	n/a	n/a	n/a	n/a
114.0589	0.5167	FIXCROSS	n/a	n/a	n/a	n/a	n/a	n/a	n/a	n/a
114.5755	0.65	INK	31	Incongruent	niebieski	blue	zielony	green	hit	n/a
115.192	n/a	RESPONSE	n/a	n/a	n/a	n/a	n/a	n/a	n/a	green
115.2255	1.0167	ITI	n/a	n/a	n/a	n/a	n/a	n/a	n/a	n/a
116.2422	0.5167	FIXCROSS	n/a	n/a	n/a	n/a	n/a	n/a	n/a	n/a
116.7589	0.65	INK	32	Incongruent	czerwony	red	zielony	green	hit	n/a
117.3835	n/a	RESPONSE	n/a	n/a	n/a	n/a	n/a	n/a	n/a	green
117.4089	1.0167	ITI	n/a	n/a	n/a	n/a	n/a	n/a	n/a	n/a
118.4256	0.5167	FIXCROSS	n/a	n/a	n/a	n/a	n/a	n/a	n/a	n/a
118.9422	0.5667	INK	33	Neutral	xxxxxxxxx	xxxxxxxxx	żółty	yellow	hit	n/a
119.4791	n/a	RESPONSE	n/a	n/a	n/a	n/a	n/a	n/a	n/a	yellow
119.5089	1.0167	ITI	n/a	n/a	n/a	n/a	n/a	n/a	n/a	n/a
120.5256	0.5167	FIXCROSS	n/a	n/a	n/a	n/a	n/a	n/a	n/a	n/a
121.0423	0.8167	INK	34	Incongruent	czerwony	red	żółty	yellow	hit	n/a
121.8306	n/a	RESPONSE	n/a	n/a	n/a	n/a	n/a	n/a	n/a	yellow
121.859	1.0167	ITI	n/a	n/a	n/a	n/a	n/a	n/a	n/a	n/a
122.8756	0.5167	FIXCROSS	n/a	n/a	n/a	n/a	n/a	n/a	n/a	n/a
123.3923	0.5667	INK	35	Neutral	xxxxxxxxx	xxxxxxxxx	żółty	yellow	hit	n/a
123.9261	n/a	RESPONSE	n/a	n/a	n/a	n/a	n/a	n/a	n/a	yellow
123.959	1.0167	ITI	n/a	n/a	n/a	n/a	n/a	n/a	n/a	n/a
124.9756	0.5167	FIXCROSS	n/a	n/a	n/a	n/a	n/a	n/a	n/a	n/a
125.4923	0.5667	INK	36	Incongruent	zielony	green	żółty	yellow	hit	n/a
126.0377	n/a	RESPONSE	n/a	n/a	n/a	n/a	n/a	n/a	n/a	yellow
126.059	1.0167	ITI	n/a	n/a	n/a	n/a	n/a	n/a	n/a	n/a
127.0757	0.5167	FIXCROSS	n/a	n/a	n/a	n/a	n/a	n/a	n/a	n/a
127.5924	0.7	INK	37	Neutral	xxxxxxx	xxxxxxx	czerwony	red	hit	n/a
128.2612	n/a	RESPONSE	n/a	n/a	n/a	n/a	n/a	n/a	n/a	red
128.2924	1.0167	ITI	n/a	n/a	n/a	n/a	n/a	n/a	n/a	n/a
129.309	0.5167	FIXCROSS	n/a	n/a	n/a	n/a	n/a	n/a	n/a	n/a
129.8257	0.6667	INK	38	Neutral	xxxxx	xxxxx	niebieski	blue	hit	n/a
130.4688	n/a	RESPONSE	n/a	n/a	n/a	n/a	n/a	n/a	n/a	blue
130.4924	1.0167	ITI	n/a	n/a	n/a	n/a	n/a	n/a	n/a	n/a
131.5091	0.5167	FIXCROSS	n/a	n/a	n/a	n/a	n/a	n/a	n/a	n/a
132.0257	0.6667	INK	39	Incongruent	zielony	green	czerwony	red	hit	n/a
132.6603	n/a	RESPONSE	n/a	n/a	n/a	n/a	n/a	n/a	n/a	red
132.6924	1.0167	ITI	n/a	n/a	n/a	n/a	n/a	n/a	n/a	n/a
133.7091	0.5167	FIXCROSS	n/a	n/a	n/a	n/a	n/a	n/a	n/a	n/a
134.2258	0.65	INK	40	Incongruent	niebieski	blue	żółty	yellow	hit	n/a
134.8518	n/a	RESPONSE	n/a	n/a	n/a	n/a	n/a	n/a	n/a	yellow
134.8758	1.0167	ITI	n/a	n/a	n/a	n/a	n/a	n/a	n/a	n/a
135.8924	0.5167	FIXCROSS	n/a	n/a	n/a	n/a	n/a	n/a	n/a	n/a
136.4091	0.7167	INK	41	Incongruent	niebieski	blue	zielony	green	hit	n/a
137.1074	n/a	RESPONSE	n/a	n/a	n/a	n/a	n/a	n/a	n/a	green
137.1258	1.0167	ITI	n/a	n/a	n/a	n/a	n/a	n/a	n/a	n/a
138.1425	0.5167	FIXCROSS	n/a	n/a	n/a	n/a	n/a	n/a	n/a	n/a
138.6591	0.6667	INK	42	Neutral	xxxxxxxxx	xxxxxxxxx	czerwony	red	hit	n/a
139.2989	n/a	RESPONSE	n/a	n/a	n/a	n/a	n/a	n/a	n/a	red
139.3258	1.0167	ITI	n/a	n/a	n/a	n/a	n/a	n/a	n/a	n/a
140.3425	0.5167	FIXCROSS	n/a	n/a	n/a	n/a	n/a	n/a	n/a	n/a
140.8592	0.4833	INK	43	Neutral	xxxxxxx	xxxxxxx	niebieski	blue	hit	n/a
141.3145	n/a	RESPONSE	n/a	n/a	n/a	n/a	n/a	n/a	n/a	blue
141.3425	1.0167	ITI	n/a	n/a	n/a	n/a	n/a	n/a	n/a	n/a
142.3592	0.5167	FIXCROSS	n/a	n/a	n/a	n/a	n/a	n/a	n/a	n/a
142.8759	0.7833	INK	44	Neutral	xxxxxxxx	xxxxxxxx	zielony	green	hit	n/a
143.634	n/a	RESPONSE	n/a	n/a	n/a	n/a	n/a	n/a	n/a	green
143.6592	1.0167	ITI	n/a	n/a	n/a	n/a	n/a	n/a	n/a	n/a
144.6759	0.5167	FIXCROSS	n/a	n/a	n/a	n/a	n/a	n/a	n/a	n/a
145.1926	0.4333	INK	45	Neutral	xxxxxxxxx	xxxxxxxxx	żółty	yellow	hit	n/a
145.6017	n/a	RESPONSE	n/a	n/a	n/a	n/a	n/a	n/a	n/a	yellow
145.6259	1.0167	ITI	n/a	n/a	n/a	n/a	n/a	n/a	n/a	n/a
146.6426	0.5167	FIXCROSS	n/a	n/a	n/a	n/a	n/a	n/a	n/a	n/a
147.1592	0.45	INK	46	Neutral	xxxxxxxxx	xxxxxxxxx	zielony	green	hit	n/a
147.5852	n/a	RESPONSE	n/a	n/a	n/a	n/a	n/a	n/a	n/a	green
147.6093	1.0167	ITI	n/a	n/a	n/a	n/a	n/a	n/a	n/a	n/a
148.6259	0.5167	FIXCROSS	n/a	n/a	n/a	n/a	n/a	n/a	n/a	n/a
149.1426	0.5167	INK	47	Neutral	xxxxx	xxxxx	zielony	green	hit	n/a
149.6327	n/a	RESPONSE	n/a	n/a	n/a	n/a	n/a	n/a	n/a	green
149.6593	1.0167	ITI	n/a	n/a	n/a	n/a	n/a	n/a	n/a	n/a
150.676	0.5167	FIXCROSS	n/a	n/a	n/a	n/a	n/a	n/a	n/a	n/a
151.1926	0.45	INK	48	Incongruent	żółty	yellow	czerwony	red	hit	n/a
151.6164	n/a	RESPONSE	n/a	n/a	n/a	n/a	n/a	n/a	n/a	red
151.6426	1.0167	ITI	n/a	n/a	n/a	n/a	n/a	n/a	n/a	n/a
152.6593	0.5167	FIXCROSS	n/a	n/a	n/a	n/a	n/a	n/a	n/a	n/a
153.176	0.7	INK	49	Incongruent	niebieski	blue	czerwony	red	hit	n/a
153.8559	n/a	RESPONSE	n/a	n/a	n/a	n/a	n/a	n/a	n/a	red
153.876	1.0167	ITI	n/a	n/a	n/a	n/a	n/a	n/a	n/a	n/a
154.8927	0.5167	FIXCROSS	n/a	n/a	n/a	n/a	n/a	n/a	n/a	n/a
155.4094	0.4833	INK	50	Neutral	xxxxxxx	xxxxxxx	żółty	yellow	hit	n/a
155.8714	n/a	RESPONSE	n/a	n/a	n/a	n/a	n/a	n/a	n/a	yellow
155.8927	1.0167	ITI	n/a	n/a	n/a	n/a	n/a	n/a	n/a	n/a
156.9094	0.5167	FIXCROSS	n/a	n/a	n/a	n/a	n/a	n/a	n/a	n/a
157.426	0.55	INK	51	Neutral	xxxxx	xxxxx	niebieski	blue	hit	n/a
157.951	n/a	RESPONSE	n/a	n/a	n/a	n/a	n/a	n/a	n/a	blue
157.976	1.0167	ITI	n/a	n/a	n/a	n/a	n/a	n/a	n/a	n/a
158.9927	0.5167	FIXCROSS	n/a	n/a	n/a	n/a	n/a	n/a	n/a	n/a
159.5094	0.5667	INK	52	Incongruent	czerwony	red	żółty	yellow	hit	n/a
160.0466	n/a	RESPONSE	n/a	n/a	n/a	n/a	n/a	n/a	n/a	yellow
160.0761	1.0167	ITI	n/a	n/a	n/a	n/a	n/a	n/a	n/a	n/a
161.0927	0.5167	FIXCROSS	n/a	n/a	n/a	n/a	n/a	n/a	n/a	n/a
161.6094	0.65	INK	53	Neutral	xxxxx	xxxxx	czerwony	red	hit	n/a
162.2381	n/a	RESPONSE	n/a	n/a	n/a	n/a	n/a	n/a	n/a	red
162.2594	1.0167	ITI	n/a	n/a	n/a	n/a	n/a	n/a	n/a	n/a
163.2761	0.5167	FIXCROSS	n/a	n/a	n/a	n/a	n/a	n/a	n/a	n/a
163.7928	0.6167	INK	54	Neutral	xxxxxxxx	xxxxxxxx	zielony	green	hit	n/a
164.3817	n/a	RESPONSE	n/a	n/a	n/a	n/a	n/a	n/a	n/a	green
164.4094	1.0167	ITI	n/a	n/a	n/a	n/a	n/a	n/a	n/a	n/a
165.4261	0.5167	FIXCROSS	n/a	n/a	n/a	n/a	n/a	n/a	n/a	n/a
165.9428	0.5167	INK	55	Incongruent	zielony	green	niebieski	blue	hit	n/a
166.4292	n/a	RESPONSE	n/a	n/a	n/a	n/a	n/a	n/a	n/a	blue
166.4595	1.0167	ITI	n/a	n/a	n/a	n/a	n/a	n/a	n/a	n/a
167.4762	0.5167	FIXCROSS	n/a	n/a	n/a	n/a	n/a	n/a	n/a	n/a
167.9928	0.6667	INK	56	Incongruent	żółty	yellow	czerwony	red	hit	n/a
168.6368	n/a	RESPONSE	n/a	n/a	n/a	n/a	n/a	n/a	n/a	red
168.6595	1.0167	ITI	n/a	n/a	n/a	n/a	n/a	n/a	n/a	n/a
169.6762	0.5166	FIXCROSS	n/a	n/a	n/a	n/a	n/a	n/a	n/a	n/a
170.1927	0.5835	INK	57	Neutral	xxxxxxxxx	xxxxxxxxx	czerwony	red	hit	n/a
170.7483	n/a	RESPONSE	n/a	n/a	n/a	n/a	n/a	n/a	n/a	red
170.7762	1.0167	ITI	n/a	n/a	n/a	n/a	n/a	n/a	n/a	n/a
171.7929	0.5167	FIXCROSS	n/a	n/a	n/a	n/a	n/a	n/a	n/a	n/a
172.3095	0.6834	INK	58	Incongruent	niebieski	blue	czerwony	red	hit	n/a
172.9719	n/a	RESPONSE	n/a	n/a	n/a	n/a	n/a	n/a	n/a	red
172.9929	1.0167	ITI	n/a	n/a	n/a	n/a	n/a	n/a	n/a	n/a
174.0096	0.5167	FIXCROSS	n/a	n/a	n/a	n/a	n/a	n/a	n/a	n/a
174.5262	0.8333	INK	59	Neutral	xxxxxxxxx	xxxxxxxxx	zielony	green	hit	n/a
175.3394	n/a	RESPONSE	n/a	n/a	n/a	n/a	n/a	n/a	n/a	green
175.3596	1.0167	ITI	n/a	n/a	n/a	n/a	n/a	n/a	n/a	n/a
176.3763	0.5167	FIXCROSS	n/a	n/a	n/a	n/a	n/a	n/a	n/a	n/a
176.8929	0.5167	INK	60	Neutral	xxxxx	xxxxx	zielony	green	hit	n/a
177.3869	n/a	RESPONSE	n/a	n/a	n/a	n/a	n/a	n/a	n/a	green
177.4096	1.0167	ITI	n/a	n/a	n/a	n/a	n/a	n/a	n/a	n/a
178.4263	0.5167	FIXCROSS	n/a	n/a	n/a	n/a	n/a	n/a	n/a	n/a
178.943	0.6667	INK	61	Incongruent	żółty	yellow	niebieski	blue	hit	n/a
179.5785	n/a	RESPONSE	n/a	n/a	n/a	n/a	n/a	n/a	n/a	blue
179.6096	1.0167	ITI	n/a	n/a	n/a	n/a	n/a	n/a	n/a	n/a
180.6263	0.5167	FIXCROSS	n/a	n/a	n/a	n/a	n/a	n/a	n/a	n/a
181.143	0.5	INK	62	Incongruent	żółty	yellow	czerwony	red	hit	n/a
181.6101	n/a	RESPONSE	n/a	n/a	n/a	n/a	n/a	n/a	n/a	red
181.643	1.0167	ITI	n/a	n/a	n/a	n/a	n/a	n/a	n/a	n/a
182.6597	0.5167	FIXCROSS	n/a	n/a	n/a	n/a	n/a	n/a	n/a	n/a
183.1763	0.5833	INK	63	Incongruent	zielony	green	czerwony	red	hit	n/a
183.7376	n/a	RESPONSE	n/a	n/a	n/a	n/a	n/a	n/a	n/a	red
183.7597	1.0167	ITI	n/a	n/a	n/a	n/a	n/a	n/a	n/a	n/a
184.7764	0.5167	FIXCROSS	n/a	n/a	n/a	n/a	n/a	n/a	n/a	n/a
185.293	0.4833	INK	64	Neutral	xxxxx	xxxxx	czerwony	red	hit	n/a
185.7532	n/a	RESPONSE	n/a	n/a	n/a	n/a	n/a	n/a	n/a	red
185.7764	1.0167	ITI	n/a	n/a	n/a	n/a	n/a	n/a	n/a	n/a
186.793	0.5167	FIXCROSS	n/a	n/a	n/a	n/a	n/a	n/a	n/a	n/a
187.3097	1.15	INK	65	Incongruent	żółty	yellow	zielony	green	hit	n/a
188.4406	n/a	RESPONSE	n/a	n/a	n/a	n/a	n/a	n/a	n/a	green
188.4597	1.0167	ITI	n/a	n/a	n/a	n/a	n/a	n/a	n/a	n/a
189.4764	0.5167	FIXCROSS	n/a	n/a	n/a	n/a	n/a	n/a	n/a	n/a
189.9931	0.75	INK	66	Neutral	xxxxxxx	xxxxxxx	czerwony	red	hit	n/a
190.7121	n/a	RESPONSE	n/a	n/a	n/a	n/a	n/a	n/a	n/a	red
190.7431	1.0167	ITI	n/a	n/a	n/a	n/a	n/a	n/a	n/a	n/a
191.7598	0.5167	FIXCROSS	n/a	n/a	n/a	n/a	n/a	n/a	n/a	n/a
192.2764	0.6333	INK	67	Incongruent	żółty	yellow	niebieski	blue	hit	n/a
192.8877	n/a	RESPONSE	n/a	n/a	n/a	n/a	n/a	n/a	n/a	blue
192.9098	1.0167	ITI	n/a	n/a	n/a	n/a	n/a	n/a	n/a	n/a
193.9265	0.5167	FIXCROSS	n/a	n/a	n/a	n/a	n/a	n/a	n/a	n/a
194.4431	0.7833	INK	68	Neutral	xxxxxxxx	xxxxxxxx	niebieski	blue	hit	n/a
195.2072	n/a	RESPONSE	n/a	n/a	n/a	n/a	n/a	n/a	n/a	blue
195.2265	1.0167	ITI	n/a	n/a	n/a	n/a	n/a	n/a	n/a	n/a
196.2432	0.5167	FIXCROSS	n/a	n/a	n/a	n/a	n/a	n/a	n/a	n/a
196.7598	0.5167	INK	69	Neutral	xxxxx	xxxxx	niebieski	blue	hit	n/a
197.2548	n/a	RESPONSE	n/a	n/a	n/a	n/a	n/a	n/a	n/a	blue
197.2765	1.0167	ITI	n/a	n/a	n/a	n/a	n/a	n/a	n/a	n/a
198.2932	0.5167	FIXCROSS	n/a	n/a	n/a	n/a	n/a	n/a	n/a	n/a
198.8099	0.55	INK	70	Incongruent	zielony	green	niebieski	blue	hit	n/a
199.3343	n/a	RESPONSE	n/a	n/a	n/a	n/a	n/a	n/a	n/a	blue
199.3599	1.0167	ITI	n/a	n/a	n/a	n/a	n/a	n/a	n/a	n/a
200.3765	0.5167	FIXCROSS	n/a	n/a	n/a	n/a	n/a	n/a	n/a	n/a
200.8932	0.7833	INK	71	Incongruent	niebieski	blue	żółty	yellow	hit	n/a
201.6539	n/a	RESPONSE	n/a	n/a	n/a	n/a	n/a	n/a	n/a	yellow
201.6766	1.0167	ITI	n/a	n/a	n/a	n/a	n/a	n/a	n/a	n/a
202.6932	0.5167	FIXCROSS	n/a	n/a	n/a	n/a	n/a	n/a	n/a	n/a
203.2099	1.45	INK	72	Incongruent	czerwony	red	niebieski	blue	hit	n/a
204.6292	n/a	RESPONSE	n/a	n/a	n/a	n/a	n/a	n/a	n/a	blue
204.6599	1.0834	ITI	n/a	n/a	n/a	n/a	n/a	n/a	n/a	n/a
215.5869	n/a	RESPONSE	n/a	n/a	n/a	n/a	n/a	n/a	n/a	n/a
215.6434	1.0167	ITI	n/a	n/a	n/a	n/a	n/a	n/a	n/a	n/a
216.6601	0.5167	FIXCROSS	n/a	n/a	n/a	n/a	n/a	n/a	n/a	n/a
217.1767	1.2834	T_COLOR_NAME	1	Neutral	czerwony	red	Neutral	Neutral	hit	n/a
218.4344	n/a	RESPONSE	n/a	n/a	n/a	n/a	n/a	n/a	n/a	red
218.4601	0.5167	FEEDBACK	n/a	n/a	n/a	n/a	n/a	n/a	n/a	n/a
218.9768	1.0167	ITI	n/a	n/a	n/a	n/a	n/a	n/a	n/a	n/a
219.9934	0.5167	FIXCROSS	n/a	n/a	n/a	n/a	n/a	n/a	n/a	n/a
220.5101	0.6833	T_COLOR_NAME	2	Neutral	żółty	yellow	Neutral	Neutral	hit	n/a
221.1698	n/a	RESPONSE	n/a	n/a	n/a	n/a	n/a	n/a	n/a	yellow
221.1935	0.5167	FEEDBACK	n/a	n/a	n/a	n/a	n/a	n/a	n/a	n/a
221.7101	1.0167	ITI	n/a	n/a	n/a	n/a	n/a	n/a	n/a	n/a
222.7268	0.5167	FIXCROSS	n/a	n/a	n/a	n/a	n/a	n/a	n/a	n/a
223.2435	1.3	T_COLOR_NAME	3	Incongruent	czerwony	red	niebieski	blue	hit	n/a
224.5131	n/a	RESPONSE	n/a	n/a	n/a	n/a	n/a	n/a	n/a	red
224.5435	0.5167	FEEDBACK	n/a	n/a	n/a	n/a	n/a	n/a	n/a	n/a
225.0602	1.0167	ITI	n/a	n/a	n/a	n/a	n/a	n/a	n/a	n/a
226.0769	0.5167	FIXCROSS	n/a	n/a	n/a	n/a	n/a	n/a	n/a	n/a
226.5935	0.8667	T_COLOR_NAME	4	Neutral	niebieski	blue	Neutral	Neutral	hit	n/a
227.4405	n/a	RESPONSE	n/a	n/a	n/a	n/a	n/a	n/a	n/a	blue
227.4602	0.5167	FEEDBACK	n/a	n/a	n/a	n/a	n/a	n/a	n/a	n/a
227.9769	1.0167	ITI	n/a	n/a	n/a	n/a	n/a	n/a	n/a	n/a
228.9935	0.5167	FIXCROSS	n/a	n/a	n/a	n/a	n/a	n/a	n/a	n/a
229.5102	0.7667	T_COLOR_NAME	5	Incongruent	żółty	yellow	zielony	green	hit	n/a
230.2559	n/a	RESPONSE	n/a	n/a	n/a	n/a	n/a	n/a	n/a	yellow
230.2769	0.5167	FEEDBACK	n/a	n/a	n/a	n/a	n/a	n/a	n/a	n/a
230.7936	1.0167	ITI	n/a	n/a	n/a	n/a	n/a	n/a	n/a	n/a
231.8102	0.5167	FIXCROSS	n/a	n/a	n/a	n/a	n/a	n/a	n/a	n/a
232.3269	0.9	T_COLOR_NAME	6	Incongruent	zielony	green	czerwony	red	hit	n/a
233.1993	n/a	RESPONSE	n/a	n/a	n/a	n/a	n/a	n/a	n/a	green
233.2269	0.5167	FEEDBACK	n/a	n/a	n/a	n/a	n/a	n/a	n/a	n/a
233.7436	1.0167	ITI	n/a	n/a	n/a	n/a	n/a	n/a	n/a	n/a
234.7603	0.5167	FIXCROSS	n/a	n/a	n/a	n/a	n/a	n/a	n/a	n/a
235.277	0.9	T_COLOR_NAME	7	Incongruent	żółty	yellow	niebieski	blue	hit	n/a
236.1427	n/a	RESPONSE	n/a	n/a	n/a	n/a	n/a	n/a	n/a	yellow
236.177	0.5167	FEEDBACK	n/a	n/a	n/a	n/a	n/a	n/a	n/a	n/a
236.6936	1.0167	ITI	n/a	n/a	n/a	n/a	n/a	n/a	n/a	n/a
237.7103	0.5167	FIXCROSS	n/a	n/a	n/a	n/a	n/a	n/a	n/a	n/a
238.227	0.65	T_COLOR_NAME	8	Neutral	żółty	yellow	Neutral	Neutral	hit	n/a
238.8461	n/a	RESPONSE	n/a	n/a	n/a	n/a	n/a	n/a	n/a	yellow
238.877	0.5167	FEEDBACK	n/a	n/a	n/a	n/a	n/a	n/a	n/a	n/a
239.3937	1.0167	ITI	n/a	n/a	n/a	n/a	n/a	n/a	n/a	n/a
240.4104	0.5167	FIXCROSS	n/a	n/a	n/a	n/a	n/a	n/a	n/a	n/a
240.927	0.8167	T_COLOR_NAME	9	Neutral	czerwony	red	Neutral	Neutral	hit	n/a
241.7095	n/a	RESPONSE	n/a	n/a	n/a	n/a	n/a	n/a	n/a	red
241.7437	0.5167	FEEDBACK	n/a	n/a	n/a	n/a	n/a	n/a	n/a	n/a
242.2604	1.0167	ITI	n/a	n/a	n/a	n/a	n/a	n/a	n/a	n/a
243.277	0.5167	FIXCROSS	n/a	n/a	n/a	n/a	n/a	n/a	n/a	n/a
243.7937	0.5833	T_COLOR_NAME	10	Neutral	niebieski	blue	Neutral	Neutral	hit	n/a
244.3489	n/a	RESPONSE	n/a	n/a	n/a	n/a	n/a	n/a	n/a	blue
244.3771	0.5167	FEEDBACK	n/a	n/a	n/a	n/a	n/a	n/a	n/a	n/a
244.8937	1.0167	ITI	n/a	n/a	n/a	n/a	n/a	n/a	n/a	n/a
245.9104	0.5167	FIXCROSS	n/a	n/a	n/a	n/a	n/a	n/a	n/a	n/a
246.4271	0.8167	T_COLOR_NAME	11	Neutral	zielony	green	Neutral	Neutral	hit	n/a
247.2123	n/a	RESPONSE	n/a	n/a	n/a	n/a	n/a	n/a	n/a	green
247.2438	0.5167	FEEDBACK	n/a	n/a	n/a	n/a	n/a	n/a	n/a	n/a
247.7604	1.0167	ITI	n/a	n/a	n/a	n/a	n/a	n/a	n/a	n/a
248.7771	0.5167	FIXCROSS	n/a	n/a	n/a	n/a	n/a	n/a	n/a	n/a
249.2938	0.8833	T_COLOR_NAME	12	Incongruent	zielony	green	żółty	yellow	hit	n/a
250.1558	n/a	RESPONSE	n/a	n/a	n/a	n/a	n/a	n/a	n/a	green
250.1771	0.5167	FEEDBACK	n/a	n/a	n/a	n/a	n/a	n/a	n/a	n/a
250.6938	1.0333	ITI	n/a	n/a	n/a	n/a	n/a	n/a	n/a	n/a
255.0667	n/a	RESPONSE	n/a	n/a	n/a	n/a	n/a	n/a	n/a	n/a
255.1272	1.0167	ITI	n/a	n/a	n/a	n/a	n/a	n/a	n/a	n/a
256.1439	0.5167	FIXCROSS	n/a	n/a	n/a	n/a	n/a	n/a	n/a	n/a
256.6605	0.7667	COLOR_NAME	1	Neutral	czerwony	red	Neutral	Neutral	hit	n/a
257.4022	n/a	RESPONSE	n/a	n/a	n/a	n/a	n/a	n/a	n/a	red
257.4272	1.0167	ITI	n/a	n/a	n/a	n/a	n/a	n/a	n/a	n/a
258.4439	0.5167	FIXCROSS	n/a	n/a	n/a	n/a	n/a	n/a	n/a	n/a
258.9606	0.8333	COLOR_NAME	2	Incongruent	żółty	yellow	niebieski	blue	hit	n/a
259.7697	n/a	RESPONSE	n/a	n/a	n/a	n/a	n/a	n/a	n/a	yellow
259.7939	1.0167	ITI	n/a	n/a	n/a	n/a	n/a	n/a	n/a	n/a
260.8106	0.5167	FIXCROSS	n/a	n/a	n/a	n/a	n/a	n/a	n/a	n/a
261.3273	0.7333	COLOR_NAME	3	Incongruent	niebieski	blue	czerwony	red	hit	n/a
262.0412	n/a	RESPONSE	n/a	n/a	n/a	n/a	n/a	n/a	n/a	blue
262.0606	1.0167	ITI	n/a	n/a	n/a	n/a	n/a	n/a	n/a	n/a
263.0773	0.5167	FIXCROSS	n/a	n/a	n/a	n/a	n/a	n/a	n/a	n/a
263.594	0.65	COLOR_NAME	4	Incongruent	zielony	green	żółty	yellow	hit	n/a
264.2168	n/a	RESPONSE	n/a	n/a	n/a	n/a	n/a	n/a	n/a	green
264.244	1.0167	ITI	n/a	n/a	n/a	n/a	n/a	n/a	n/a	n/a
265.2606	0.5167	FIXCROSS	n/a	n/a	n/a	n/a	n/a	n/a	n/a	n/a
265.7773	0.6667	COLOR_NAME	5	Neutral	żółty	yellow	Neutral	Neutral	hit	n/a
266.4243	n/a	RESPONSE	n/a	n/a	n/a	n/a	n/a	n/a	n/a	yellow
266.444	1.0167	ITI	n/a	n/a	n/a	n/a	n/a	n/a	n/a	n/a
267.4607	0.5167	FIXCROSS	n/a	n/a	n/a	n/a	n/a	n/a	n/a	n/a
267.9773	0.5667	COLOR_NAME	6	Incongruent	żółty	yellow	czerwony	red	hit	n/a
268.5198	n/a	RESPONSE	n/a	n/a	n/a	n/a	n/a	n/a	n/a	yellow
268.544	1.0167	ITI	n/a	n/a	n/a	n/a	n/a	n/a	n/a	n/a
269.5607	0.5167	FIXCROSS	n/a	n/a	n/a	n/a	n/a	n/a	n/a	n/a
270.0774	0.6667	COLOR_NAME	7	Neutral	zielony	green	Neutral	Neutral	hit	n/a
270.7114	n/a	RESPONSE	n/a	n/a	n/a	n/a	n/a	n/a	n/a	green
270.744	1.0167	ITI	n/a	n/a	n/a	n/a	n/a	n/a	n/a	n/a
271.7607	0.5167	FIXCROSS	n/a	n/a	n/a	n/a	n/a	n/a	n/a	n/a
272.2774	0.5667	COLOR_NAME	8	Incongruent	żółty	yellow	czerwony	red	hit	n/a
272.823	n/a	RESPONSE	n/a	n/a	n/a	n/a	n/a	n/a	n/a	yellow
272.8441	1.0167	ITI	n/a	n/a	n/a	n/a	n/a	n/a	n/a	n/a
273.8607	0.5167	FIXCROSS	n/a	n/a	n/a	n/a	n/a	n/a	n/a	n/a
274.3774	0.7667	COLOR_NAME	9	Incongruent	czerwony	red	niebieski	blue	hit	n/a
275.1266	n/a	RESPONSE	n/a	n/a	n/a	n/a	n/a	n/a	n/a	red
275.1441	1.0167	ITI	n/a	n/a	n/a	n/a	n/a	n/a	n/a	n/a
276.1608	0.5167	FIXCROSS	n/a	n/a	n/a	n/a	n/a	n/a	n/a	n/a
276.6774	0.6833	COLOR_NAME	10	Incongruent	czerwony	red	niebieski	blue	hit	n/a
277.334	n/a	RESPONSE	n/a	n/a	n/a	n/a	n/a	n/a	n/a	red
277.3608	1.0167	ITI	n/a	n/a	n/a	n/a	n/a	n/a	n/a	n/a
278.3775	0.5167	FIXCROSS	n/a	n/a	n/a	n/a	n/a	n/a	n/a	n/a
278.8941	0.6333	COLOR_NAME	11	Incongruent	niebieski	blue	zielony	green	hit	n/a
279.5096	n/a	RESPONSE	n/a	n/a	n/a	n/a	n/a	n/a	n/a	blue
279.5275	1.0167	ITI	n/a	n/a	n/a	n/a	n/a	n/a	n/a	n/a
280.5442	0.5167	FIXCROSS	n/a	n/a	n/a	n/a	n/a	n/a	n/a	n/a
281.0608	0.45	COLOR_NAME	12	Incongruent	zielony	green	czerwony	red	hit	n/a
281.4932	n/a	RESPONSE	n/a	n/a	n/a	n/a	n/a	n/a	n/a	green
281.5108	1.0167	ITI	n/a	n/a	n/a	n/a	n/a	n/a	n/a	n/a
282.5275	0.5167	FIXCROSS	n/a	n/a	n/a	n/a	n/a	n/a	n/a	n/a
283.0442	0.5167	COLOR_NAME	13	Neutral	zielony	green	Neutral	Neutral	hit	n/a
283.5407	n/a	RESPONSE	n/a	n/a	n/a	n/a	n/a	n/a	n/a	green
283.5609	1.0167	ITI	n/a	n/a	n/a	n/a	n/a	n/a	n/a	n/a
284.5775	0.5167	FIXCROSS	n/a	n/a	n/a	n/a	n/a	n/a	n/a	n/a
285.0942	0.6167	COLOR_NAME	14	Neutral	żółty	yellow	Neutral	Neutral	hit	n/a
285.6843	n/a	RESPONSE	n/a	n/a	n/a	n/a	n/a	n/a	n/a	yellow
285.7109	1.0167	ITI	n/a	n/a	n/a	n/a	n/a	n/a	n/a	n/a
286.7276	0.5167	FIXCROSS	n/a	n/a	n/a	n/a	n/a	n/a	n/a	n/a
287.2442	0.6667	COLOR_NAME	15	Incongruent	czerwony	red	żółty	yellow	hit	n/a
287.8918	n/a	RESPONSE	n/a	n/a	n/a	n/a	n/a	n/a	n/a	red
287.9109	1.0167	ITI	n/a	n/a	n/a	n/a	n/a	n/a	n/a	n/a
288.9276	0.5167	FIXCROSS	n/a	n/a	n/a	n/a	n/a	n/a	n/a	n/a
289.4443	0.6834	COLOR_NAME	16	Incongruent	niebieski	blue	zielony	green	hit	n/a
290.0994	n/a	RESPONSE	n/a	n/a	n/a	n/a	n/a	n/a	n/a	blue
290.1276	1.0167	ITI	n/a	n/a	n/a	n/a	n/a	n/a	n/a	n/a
291.1443	0.5167	FIXCROSS	n/a	n/a	n/a	n/a	n/a	n/a	n/a	n/a
291.661	0.6667	COLOR_NAME	17	Neutral	niebieski	blue	Neutral	Neutral	hit	n/a
292.3069	n/a	RESPONSE	n/a	n/a	n/a	n/a	n/a	n/a	n/a	blue
292.3276	1.0167	ITI	n/a	n/a	n/a	n/a	n/a	n/a	n/a	n/a
293.3443	0.5167	FIXCROSS	n/a	n/a	n/a	n/a	n/a	n/a	n/a	n/a
293.861	0.7167	COLOR_NAME	18	Incongruent	żółty	yellow	czerwony	red	hit	n/a
294.5464	n/a	RESPONSE	n/a	n/a	n/a	n/a	n/a	n/a	n/a	yellow
294.5777	1.0167	ITI	n/a	n/a	n/a	n/a	n/a	n/a	n/a	n/a
295.5943	0.5167	FIXCROSS	n/a	n/a	n/a	n/a	n/a	n/a	n/a	n/a
296.111	0.55	COLOR_NAME	19	Incongruent	żółty	yellow	zielony	green	hit	n/a
296.642	n/a	RESPONSE	n/a	n/a	n/a	n/a	n/a	n/a	n/a	yellow
296.661	1.0167	ITI	n/a	n/a	n/a	n/a	n/a	n/a	n/a	n/a
297.6777	0.5167	FIXCROSS	n/a	n/a	n/a	n/a	n/a	n/a	n/a	n/a
298.1944	0.5165	COLOR_NAME	20	Neutral	czerwony	red	Neutral	Neutral	hit	n/a
298.6896	n/a	RESPONSE	n/a	n/a	n/a	n/a	n/a	n/a	n/a	red
298.7109	1.0168	ITI	n/a	n/a	n/a	n/a	n/a	n/a	n/a	n/a
299.7277	0.5167	FIXCROSS	n/a	n/a	n/a	n/a	n/a	n/a	n/a	n/a
300.2444	0.6167	COLOR_NAME	21	Neutral	żółty	yellow	Neutral	Neutral	hit	n/a
300.8331	n/a	RESPONSE	n/a	n/a	n/a	n/a	n/a	n/a	n/a	yellow
300.8611	1.0167	ITI	n/a	n/a	n/a	n/a	n/a	n/a	n/a	n/a
301.8777	0.5167	FIXCROSS	n/a	n/a	n/a	n/a	n/a	n/a	n/a	n/a
302.3944	0.65	COLOR_NAME	22	Incongruent	zielony	green	żółty	yellow	hit	n/a
303.0246	n/a	RESPONSE	n/a	n/a	n/a	n/a	n/a	n/a	n/a	green
303.0444	1.0167	ITI	n/a	n/a	n/a	n/a	n/a	n/a	n/a	n/a
304.0611	0.5167	FIXCROSS	n/a	n/a	n/a	n/a	n/a	n/a	n/a	n/a
304.5778	0.65	COLOR_NAME	23	Neutral	niebieski	blue	Neutral	Neutral	hit	n/a
305.2002	n/a	RESPONSE	n/a	n/a	n/a	n/a	n/a	n/a	n/a	blue
305.2278	1.0167	ITI	n/a	n/a	n/a	n/a	n/a	n/a	n/a	n/a
306.2445	0.5167	FIXCROSS	n/a	n/a	n/a	n/a	n/a	n/a	n/a	n/a
306.7611	0.5833	COLOR_NAME	24	Neutral	niebieski	blue	Neutral	Neutral	hit	n/a
307.3117	n/a	RESPONSE	n/a	n/a	n/a	n/a	n/a	n/a	n/a	blue
307.3445	1.0167	ITI	n/a	n/a	n/a	n/a	n/a	n/a	n/a	n/a
308.3612	0.5167	FIXCROSS	n/a	n/a	n/a	n/a	n/a	n/a	n/a	n/a
308.8778	0.5667	COLOR_NAME	25	Incongruent	żółty	yellow	niebieski	blue	hit	n/a
309.4233	n/a	RESPONSE	n/a	n/a	n/a	n/a	n/a	n/a	n/a	yellow
309.4445	1.0167	ITI	n/a	n/a	n/a	n/a	n/a	n/a	n/a	n/a
310.4612	0.5167	FIXCROSS	n/a	n/a	n/a	n/a	n/a	n/a	n/a	n/a
310.9779	0.7167	COLOR_NAME	26	Incongruent	niebieski	blue	czerwony	red	hit	n/a
311.6628	n/a	RESPONSE	n/a	n/a	n/a	n/a	n/a	n/a	n/a	blue
311.6945	1.0167	ITI	n/a	n/a	n/a	n/a	n/a	n/a	n/a	n/a
312.7112	0.5167	FIXCROSS	n/a	n/a	n/a	n/a	n/a	n/a	n/a	n/a
313.2279	0.5333	COLOR_NAME	27	Neutral	żółty	yellow	Neutral	Neutral	hit	n/a
313.7424	n/a	RESPONSE	n/a	n/a	n/a	n/a	n/a	n/a	n/a	yellow
313.7612	1.0167	ITI	n/a	n/a	n/a	n/a	n/a	n/a	n/a	n/a
314.7779	0.5167	FIXCROSS	n/a	n/a	n/a	n/a	n/a	n/a	n/a	n/a
315.2946	0.95	COLOR_NAME	28	Incongruent	czerwony	red	żółty	yellow	hit	n/a
316.2219	n/a	RESPONSE	n/a	n/a	n/a	n/a	n/a	n/a	n/a	red
316.2446	1.0167	ITI	n/a	n/a	n/a	n/a	n/a	n/a	n/a	n/a
317.2613	0.5167	FIXCROSS	n/a	n/a	n/a	n/a	n/a	n/a	n/a	n/a
317.7779	0.65	COLOR_NAME	29	Neutral	zielony	green	Neutral	Neutral	hit	n/a
318.3974	n/a	RESPONSE	n/a	n/a	n/a	n/a	n/a	n/a	n/a	green
318.4279	1.0167	ITI	n/a	n/a	n/a	n/a	n/a	n/a	n/a	n/a
319.4446	0.5167	FIXCROSS	n/a	n/a	n/a	n/a	n/a	n/a	n/a	n/a
319.9613	0.6	COLOR_NAME	30	Neutral	żółty	yellow	Neutral	Neutral	hit	n/a
320.541	n/a	RESPONSE	n/a	n/a	n/a	n/a	n/a	n/a	n/a	yellow
320.5613	1.0167	ITI	n/a	n/a	n/a	n/a	n/a	n/a	n/a	n/a
321.578	0.5167	FIXCROSS	n/a	n/a	n/a	n/a	n/a	n/a	n/a	n/a
322.0946	0.65	COLOR_NAME	31	Neutral	czerwony	red	Neutral	Neutral	hit	n/a
322.7165	n/a	RESPONSE	n/a	n/a	n/a	n/a	n/a	n/a	n/a	red
322.7447	1.0167	ITI	n/a	n/a	n/a	n/a	n/a	n/a	n/a	n/a
323.7613	0.5167	FIXCROSS	n/a	n/a	n/a	n/a	n/a	n/a	n/a	n/a
324.278	1.3167	COLOR_NAME	32	Neutral	zielony	green	Neutral	Neutral	hit	n/a
325.5639	n/a	RESPONSE	n/a	n/a	n/a	n/a	n/a	n/a	n/a	green
325.5947	1.0167	ITI	n/a	n/a	n/a	n/a	n/a	n/a	n/a	n/a
326.6114	0.5167	FIXCROSS	n/a	n/a	n/a	n/a	n/a	n/a	n/a	n/a
327.128	0.5667	COLOR_NAME	33	Incongruent	zielony	green	niebieski	blue	hit	n/a
327.6595	n/a	RESPONSE	n/a	n/a	n/a	n/a	n/a	n/a	n/a	green
327.6947	1.0167	ITI	n/a	n/a	n/a	n/a	n/a	n/a	n/a	n/a
328.7114	0.5167	FIXCROSS	n/a	n/a	n/a	n/a	n/a	n/a	n/a	n/a
329.2281	0.4833	COLOR_NAME	34	Neutral	zielony	green	Neutral	Neutral	hit	n/a
329.6911	n/a	RESPONSE	n/a	n/a	n/a	n/a	n/a	n/a	n/a	green
329.7114	1.0167	ITI	n/a	n/a	n/a	n/a	n/a	n/a	n/a	n/a
330.7281	0.5167	FIXCROSS	n/a	n/a	n/a	n/a	n/a	n/a	n/a	n/a
331.2448	0.65	COLOR_NAME	35	Neutral	niebieski	blue	Neutral	Neutral	hit	n/a
331.8666	n/a	RESPONSE	n/a	n/a	n/a	n/a	n/a	n/a	n/a	blue
331.8948	1.0167	ITI	n/a	n/a	n/a	n/a	n/a	n/a	n/a	n/a
332.9114	0.5167	FIXCROSS	n/a	n/a	n/a	n/a	n/a	n/a	n/a	n/a
333.4281	0.7667	COLOR_NAME	36	Neutral	czerwony	red	Neutral	Neutral	hit	n/a
334.1701	n/a	RESPONSE	n/a	n/a	n/a	n/a	n/a	n/a	n/a	red
334.1948	1.0167	ITI	n/a	n/a	n/a	n/a	n/a	n/a	n/a	n/a
335.2115	0.5167	FIXCROSS	n/a	n/a	n/a	n/a	n/a	n/a	n/a	n/a
335.7281	0.6833	COLOR_NAME	37	Neutral	niebieski	blue	Neutral	Neutral	hit	n/a
336.3776	n/a	RESPONSE	n/a	n/a	n/a	n/a	n/a	n/a	n/a	blue
336.4115	1.0167	ITI	n/a	n/a	n/a	n/a	n/a	n/a	n/a	n/a
337.4282	0.5167	FIXCROSS	n/a	n/a	n/a	n/a	n/a	n/a	n/a	n/a
337.9448	0.4667	COLOR_NAME	38	Neutral	żółty	yellow	Neutral	Neutral	hit	n/a
338.3932	n/a	RESPONSE	n/a	n/a	n/a	n/a	n/a	n/a	n/a	yellow
338.4115	1.0167	ITI	n/a	n/a	n/a	n/a	n/a	n/a	n/a	n/a
339.4282	0.5167	FIXCROSS	n/a	n/a	n/a	n/a	n/a	n/a	n/a	n/a
339.9449	0.6667	COLOR_NAME	39	Incongruent	czerwony	red	zielony	green	hit	n/a
340.5848	n/a	RESPONSE	n/a	n/a	n/a	n/a	n/a	n/a	n/a	red
340.6115	1.0167	ITI	n/a	n/a	n/a	n/a	n/a	n/a	n/a	n/a
341.6282	0.5165	FIXCROSS	n/a	n/a	n/a	n/a	n/a	n/a	n/a	n/a
342.1447	0.6335	COLOR_NAME	40	Incongruent	żółty	yellow	zielony	green	hit	n/a
342.7443	n/a	RESPONSE	n/a	n/a	n/a	n/a	n/a	n/a	n/a	yellow
342.7782	1.0167	ITI	n/a	n/a	n/a	n/a	n/a	n/a	n/a	n/a
343.7949	0.5167	FIXCROSS	n/a	n/a	n/a	n/a	n/a	n/a	n/a	n/a
344.3116	0.6833	COLOR_NAME	41	Incongruent	niebieski	blue	zielony	green	hit	n/a
344.9678	n/a	RESPONSE	n/a	n/a	n/a	n/a	n/a	n/a	n/a	blue
344.9949	1.0167	ITI	n/a	n/a	n/a	n/a	n/a	n/a	n/a	n/a
346.0116	0.5167	FIXCROSS	n/a	n/a	n/a	n/a	n/a	n/a	n/a	n/a
346.5283	0.8833	COLOR_NAME	42	Incongruent	zielony	green	niebieski	blue	hit	n/a
347.3834	n/a	RESPONSE	n/a	n/a	n/a	n/a	n/a	n/a	n/a	green
347.4116	1.0167	ITI	n/a	n/a	n/a	n/a	n/a	n/a	n/a	n/a
348.4283	0.5167	FIXCROSS	n/a	n/a	n/a	n/a	n/a	n/a	n/a	n/a
348.945	0.7334	COLOR_NAME	43	Incongruent	czerwony	red	żółty	yellow	hit	n/a
349.6549	n/a	RESPONSE	n/a	n/a	n/a	n/a	n/a	n/a	n/a	red
349.6783	1.0167	ITI	n/a	n/a	n/a	n/a	n/a	n/a	n/a	n/a
350.695	0.5167	FIXCROSS	n/a	n/a	n/a	n/a	n/a	n/a	n/a	n/a
351.2117	1.3	COLOR_NAME	44	Neutral	zielony	green	Neutral	Neutral	hit	n/a
352.4863	n/a	RESPONSE	n/a	n/a	n/a	n/a	n/a	n/a	n/a	green
352.5117	1.0167	ITI	n/a	n/a	n/a	n/a	n/a	n/a	n/a	n/a
353.5284	0.5167	FIXCROSS	n/a	n/a	n/a	n/a	n/a	n/a	n/a	n/a
354.045	0.6167	COLOR_NAME	45	Incongruent	żółty	yellow	zielony	green	hit	n/a
354.6298	n/a	RESPONSE	n/a	n/a	n/a	n/a	n/a	n/a	n/a	yellow
354.6617	1.0167	ITI	n/a	n/a	n/a	n/a	n/a	n/a	n/a	n/a
355.6784	0.5167	FIXCROSS	n/a	n/a	n/a	n/a	n/a	n/a	n/a	n/a
356.195	0.8	COLOR_NAME	46	Incongruent	zielony	green	niebieski	blue	hit	n/a
356.9654	n/a	RESPONSE	n/a	n/a	n/a	n/a	n/a	n/a	n/a	green
356.9951	1.0167	ITI	n/a	n/a	n/a	n/a	n/a	n/a	n/a	n/a
358.0117	0.5167	FIXCROSS	n/a	n/a	n/a	n/a	n/a	n/a	n/a	n/a
358.5284	0.5667	COLOR_NAME	47	Neutral	zielony	green	Neutral	Neutral	hit	n/a
359.0769	n/a	RESPONSE	n/a	n/a	n/a	n/a	n/a	n/a	n/a	green
359.0951	1.0167	ITI	n/a	n/a	n/a	n/a	n/a	n/a	n/a	n/a
360.1118	0.5167	FIXCROSS	n/a	n/a	n/a	n/a	n/a	n/a	n/a	n/a
360.6284	0.6167	COLOR_NAME	48	Incongruent	żółty	yellow	niebieski	blue	hit	n/a
361.2204	n/a	RESPONSE	n/a	n/a	n/a	n/a	n/a	n/a	n/a	yellow
361.2451	1.0167	ITI	n/a	n/a	n/a	n/a	n/a	n/a	n/a	n/a
362.2618	0.5167	FIXCROSS	n/a	n/a	n/a	n/a	n/a	n/a	n/a	n/a
362.7785	0.5333	COLOR_NAME	49	Neutral	zielony	green	Neutral	Neutral	hit	n/a
363.284	n/a	RESPONSE	n/a	n/a	n/a	n/a	n/a	n/a	n/a	green
363.3118	1.0167	ITI	n/a	n/a	n/a	n/a	n/a	n/a	n/a	n/a
364.3285	0.5167	FIXCROSS	n/a	n/a	n/a	n/a	n/a	n/a	n/a	n/a
364.8452	0.6333	COLOR_NAME	50	Neutral	żółty	yellow	Neutral	Neutral	hit	n/a
365.4596	n/a	RESPONSE	n/a	n/a	n/a	n/a	n/a	n/a	n/a	yellow
365.4785	1.0167	ITI	n/a	n/a	n/a	n/a	n/a	n/a	n/a	n/a
366.4952	0.5167	FIXCROSS	n/a	n/a	n/a	n/a	n/a	n/a	n/a	n/a
367.0118	0.7667	COLOR_NAME	51	Incongruent	niebieski	blue	czerwony	red	hit	n/a
367.7471	n/a	RESPONSE	n/a	n/a	n/a	n/a	n/a	n/a	n/a	blue
367.7785	1.0167	ITI	n/a	n/a	n/a	n/a	n/a	n/a	n/a	n/a
368.7952	0.5167	FIXCROSS	n/a	n/a	n/a	n/a	n/a	n/a	n/a	n/a
369.3119	0.8333	COLOR_NAME	52	Neutral	czerwony	red	Neutral	Neutral	hit	n/a
370.1146	n/a	RESPONSE	n/a	n/a	n/a	n/a	n/a	n/a	n/a	red
370.1452	1.0167	ITI	n/a	n/a	n/a	n/a	n/a	n/a	n/a	n/a
371.1619	0.5167	FIXCROSS	n/a	n/a	n/a	n/a	n/a	n/a	n/a	n/a
371.6786	0.8667	COLOR_NAME	53	Incongruent	zielony	green	żółty	yellow	hit	n/a
372.5141	n/a	RESPONSE	n/a	n/a	n/a	n/a	n/a	n/a	n/a	green
372.5452	1.0167	ITI	n/a	n/a	n/a	n/a	n/a	n/a	n/a	n/a
373.5619	0.5167	FIXCROSS	n/a	n/a	n/a	n/a	n/a	n/a	n/a	n/a
374.0786	0.5167	COLOR_NAME	54	Neutral	niebieski	blue	Neutral	Neutral	hit	n/a
374.5777	n/a	RESPONSE	n/a	n/a	n/a	n/a	n/a	n/a	n/a	blue
374.5953	1.0167	ITI	n/a	n/a	n/a	n/a	n/a	n/a	n/a	n/a
375.6119	0.5167	FIXCROSS	n/a	n/a	n/a	n/a	n/a	n/a	n/a	n/a
376.1286	0.6	COLOR_NAME	55	Incongruent	czerwony	red	zielony	green	hit	n/a
376.7052	n/a	RESPONSE	n/a	n/a	n/a	n/a	n/a	n/a	n/a	red
376.7286	1.0167	ITI	n/a	n/a	n/a	n/a	n/a	n/a	n/a	n/a
377.7453	0.5167	FIXCROSS	n/a	n/a	n/a	n/a	n/a	n/a	n/a	n/a
378.262	0.7667	COLOR_NAME	56	Neutral	niebieski	blue	Neutral	Neutral	hit	n/a
379.0087	n/a	RESPONSE	n/a	n/a	n/a	n/a	n/a	n/a	n/a	blue
379.0287	1.0167	ITI	n/a	n/a	n/a	n/a	n/a	n/a	n/a	n/a
380.0453	0.5167	FIXCROSS	n/a	n/a	n/a	n/a	n/a	n/a	n/a	n/a
380.562	0.6	COLOR_NAME	57	Neutral	czerwony	red	Neutral	Neutral	hit	n/a
381.1362	n/a	RESPONSE	n/a	n/a	n/a	n/a	n/a	n/a	n/a	red
381.162	1.0167	ITI	n/a	n/a	n/a	n/a	n/a	n/a	n/a	n/a
382.1787	0.5167	FIXCROSS	n/a	n/a	n/a	n/a	n/a	n/a	n/a	n/a
382.6954	1.3833	COLOR_NAME	58	Incongruent	niebieski	blue	żółty	yellow	hit	n/a
384.0477	n/a	RESPONSE	n/a	n/a	n/a	n/a	n/a	n/a	n/a	blue
384.0787	1.0167	ITI	n/a	n/a	n/a	n/a	n/a	n/a	n/a	n/a
385.0954	0.5167	FIXCROSS	n/a	n/a	n/a	n/a	n/a	n/a	n/a	n/a
385.6121	0.6333	COLOR_NAME	59	Neutral	czerwony	red	Neutral	Neutral	hit	n/a
386.2232	n/a	RESPONSE	n/a	n/a	n/a	n/a	n/a	n/a	n/a	red
386.2454	1.0167	ITI	n/a	n/a	n/a	n/a	n/a	n/a	n/a	n/a
387.2621	0.5167	FIXCROSS	n/a	n/a	n/a	n/a	n/a	n/a	n/a	n/a
387.7788	0.5833	COLOR_NAME	60	Neutral	czerwony	red	Neutral	Neutral	hit	n/a
388.3348	n/a	RESPONSE	n/a	n/a	n/a	n/a	n/a	n/a	n/a	red
388.3621	1.0167	ITI	n/a	n/a	n/a	n/a	n/a	n/a	n/a	n/a
389.3788	0.5167	FIXCROSS	n/a	n/a	n/a	n/a	n/a	n/a	n/a	n/a
389.8954	0.65	COLOR_NAME	61	Neutral	niebieski	blue	Neutral	Neutral	hit	n/a
390.5263	n/a	RESPONSE	n/a	n/a	n/a	n/a	n/a	n/a	n/a	blue
390.5455	1.0167	ITI	n/a	n/a	n/a	n/a	n/a	n/a	n/a	n/a
391.5621	0.5167	FIXCROSS	n/a	n/a	n/a	n/a	n/a	n/a	n/a	n/a
392.0788	0.5167	COLOR_NAME	62	Incongruent	zielony	green	czerwony	red	hit	n/a
392.5739	n/a	RESPONSE	n/a	n/a	n/a	n/a	n/a	n/a	n/a	green
392.5955	1.0167	ITI	n/a	n/a	n/a	n/a	n/a	n/a	n/a	n/a
393.6122	0.5167	FIXCROSS	n/a	n/a	n/a	n/a	n/a	n/a	n/a	n/a
394.1288	0.6667	COLOR_NAME	63	Neutral	niebieski	blue	Neutral	Neutral	hit	n/a
394.7654	n/a	RESPONSE	n/a	n/a	n/a	n/a	n/a	n/a	n/a	blue
394.7955	1.0167	ITI	n/a	n/a	n/a	n/a	n/a	n/a	n/a	n/a
395.8122	0.5167	FIXCROSS	n/a	n/a	n/a	n/a	n/a	n/a	n/a	n/a
396.3289	0.65	COLOR_NAME	64	Incongruent	czerwony	red	zielony	green	hit	n/a
396.9569	n/a	RESPONSE	n/a	n/a	n/a	n/a	n/a	n/a	n/a	red
396.9789	1.0167	ITI	n/a	n/a	n/a	n/a	n/a	n/a	n/a	n/a
397.9955	0.5167	FIXCROSS	n/a	n/a	n/a	n/a	n/a	n/a	n/a	n/a
398.5122	0.5667	COLOR_NAME	65	Neutral	żółty	yellow	Neutral	Neutral	hit	n/a
399.0525	n/a	RESPONSE	n/a	n/a	n/a	n/a	n/a	n/a	n/a	yellow
399.0789	1.0167	ITI	n/a	n/a	n/a	n/a	n/a	n/a	n/a	n/a
400.0956	0.5167	FIXCROSS	n/a	n/a	n/a	n/a	n/a	n/a	n/a	n/a
400.6122	0.55	COLOR_NAME	66	Incongruent	niebieski	blue	żółty	yellow	hit	n/a
401.1321	n/a	RESPONSE	n/a	n/a	n/a	n/a	n/a	n/a	n/a	blue
401.1622	1.0167	ITI	n/a	n/a	n/a	n/a	n/a	n/a	n/a	n/a
402.1789	0.5167	FIXCROSS	n/a	n/a	n/a	n/a	n/a	n/a	n/a	n/a
402.6956	0.5	COLOR_NAME	67	Incongruent	zielony	green	czerwony	red	hit	n/a
403.1637	n/a	RESPONSE	n/a	n/a	n/a	n/a	n/a	n/a	n/a	green
403.1956	1.0167	ITI	n/a	n/a	n/a	n/a	n/a	n/a	n/a	n/a
404.2123	0.5167	FIXCROSS	n/a	n/a	n/a	n/a	n/a	n/a	n/a	n/a
404.729	0.4667	COLOR_NAME	68	Neutral	czerwony	red	Neutral	Neutral	hit	n/a
405.1632	n/a	RESPONSE	n/a	n/a	n/a	n/a	n/a	n/a	n/a	red
405.1956	1.0167	ITI	n/a	n/a	n/a	n/a	n/a	n/a	n/a	n/a
406.2123	0.5167	FIXCROSS	n/a	n/a	n/a	n/a	n/a	n/a	n/a	n/a
406.729	0.4833	COLOR_NAME	69	Neutral	żółty	yellow	Neutral	Neutral	hit	n/a
407.1788	n/a	RESPONSE	n/a	n/a	n/a	n/a	n/a	n/a	n/a	yellow
407.2123	1.0167	ITI	n/a	n/a	n/a	n/a	n/a	n/a	n/a	n/a
408.229	0.5167	FIXCROSS	n/a	n/a	n/a	n/a	n/a	n/a	n/a	n/a
408.7457	0.5833	COLOR_NAME	70	Incongruent	niebieski	blue	żółty	yellow	hit	n/a
409.3064	n/a	RESPONSE	n/a	n/a	n/a	n/a	n/a	n/a	n/a	blue
409.329	1.0167	ITI	n/a	n/a	n/a	n/a	n/a	n/a	n/a	n/a
410.3457	0.5167	FIXCROSS	n/a	n/a	n/a	n/a	n/a	n/a	n/a	n/a
410.8624	0.4167	COLOR_NAME	71	Neutral	zielony	green	Neutral	Neutral	hit	n/a
411.258	n/a	RESPONSE	n/a	n/a	n/a	n/a	n/a	n/a	n/a	green
411.279	1.0167	ITI	n/a	n/a	n/a	n/a	n/a	n/a	n/a	n/a
412.2957	0.5167	FIXCROSS	n/a	n/a	n/a	n/a	n/a	n/a	n/a	n/a
412.8124	0.6167	COLOR_NAME	72	Incongruent	czerwony	red	niebieski	blue	hit	n/a
413.4015	n/a	RESPONSE	n/a	n/a	n/a	n/a	n/a	n/a	n/a	red
413.4291	1.0334	ITI	n/a	n/a	n/a	n/a	n/a	n/a	n/a	n/a
417.7046	n/a	RESPONSE	n/a	n/a	n/a	n/a	n/a	n/a	n/a	n/a
